{"header":
[
  {
    "data": "studyid",
    "title": "STUDYID"
  },
  {
    "data": "usubjid",
    "title": "USUBJID"
  },
  {
    "data": "vstestcd",
    "title": "VSTESTCD"
  },
  {
    "data": "vsorres",
    "title": "VSORRES"
  },
  {
    "data": "vsdtc",
    "title": "VSDTC"
  }
],
  "data":
  [
      {
        "studyid": "TEST-STUDY",
        "usubjid": "01-001",
        "vstestcd": "SYSBP",
        "vsorres": "182",
        "vsdtc": "02/05/2011"
      },
      {
        "studyid": "TEST-STUDY",
        "usubjid": "01-002",
        "vstestcd": "SYSBP",
        "vsorres": "112",
        "vsdtc": "24/05/2011"
      },
      {
        "studyid": "TEST-STUDY",
        "usubjid": "01-003",
        "vstestcd": "SYSBP",
        "vsorres": "127",
        "vsdtc": "23/05/2011"
      },
      {
        "studyid": "TEST-STUDY",
        "usubjid": "13-001",
        "vstestcd": "SYSBP",
        "vsorres": "100",
        "vsdtc": "18/07/2011"
      },
      {
        "studyid": "TEST-STUDY",
        "usubjid": "11-001",
        "vstestcd": "SYSBP",
        "vsorres": "134",
        "vsdtc": "04/08/2011"
      },
      {
        "studyid": "TEST-STUDY",
        "usubjid": "11-002",
        "vstestcd": "SYSBP",
        "vsorres": "135",
        "vsdtc": "24/08/2011"
      },
      {
        "studyid": "TEST-STUDY",
        "usubjid": "01-004",
        "vstestcd": "SYSBP",
        "vsorres": "128",
        "vsdtc": "18/08/2011"
      },
      {
        "studyid": "TEST-STUDY",
        "usubjid": "01-005",
        "vstestcd": "SYSBP",
        "vsorres": "125",
        "vsdtc": "02/09/2011"
      },
      {
        "studyid": "TEST-STUDY",
        "usubjid": "11-003",
        "vstestcd": "SYSBP",
        "vsorres": "132",
        "vsdtc": "26/09/2011"
      },
      {
        "studyid": "TEST-STUDY",
        "usubjid": "01-006",
        "vstestcd": "SYSBP",
        "vsorres": "132",
        "vsdtc": "06/09/2011"
      },
      {
        "studyid": "TEST-STUDY",
        "usubjid": "13-002",
        "vstestcd": "SYSBP",
        "vsorres": "110",
        "vsdtc": "12/09/2011"
      },
      {
        "studyid": "TEST-STUDY",
        "usubjid": "01-007",
        "vstestcd": "SYSBP",
        "vsorres": "118",
        "vsdtc": "21/09/2011"
      },
      {
        "studyid": "TEST-STUDY",
        "usubjid": "13-003",
        "vstestcd": "SYSBP",
        "vsorres": "130",
        "vsdtc": "04/10/2011"
      },
      {
        "studyid": "TEST-STUDY",
        "usubjid": "13-004",
        "vstestcd": "SYSBP",
        "vsorres": "140",
        "vsdtc": "24/10/2011"
      },
      {
        "studyid": "TEST-STUDY",
        "usubjid": "01-008",
        "vstestcd": "SYSBP",
        "vsorres": "115",
        "vsdtc": "04/10/2011"
      },
      {
        "studyid": "TEST-STUDY",
        "usubjid": "08-002",
        "vstestcd": "SYSBP",
        "vsorres": "113",
        "vsdtc": "05/10/2011"
      },
      {
        "studyid": "TEST-STUDY",
        "usubjid": "01-009",
        "vstestcd": "SYSBP",
        "vsorres": "168",
        "vsdtc": "30/09/2011"
      },
      {
        "studyid": "TEST-STUDY",
        "usubjid": "01-010",
        "vstestcd": "SYSBP",
        "vsorres": "161",
        "vsdtc": "06/10/2011"
      },
      {
        "studyid": "TEST-STUDY",
        "usubjid": "08-003",
        "vstestcd": "SYSBP",
        "vsorres": "138",
        "vsdtc": "12/10/2011"
      },
      {
        "studyid": "TEST-STUDY",
        "usubjid": "07-001",
        "vstestcd": "SYSBP",
        "vsorres": "120",
        "vsdtc": "26/10/2011"
      },
      {
        "studyid": "TEST-STUDY",
        "usubjid": "13-005",
        "vstestcd": "SYSBP",
        "vsorres": "100",
        "vsdtc": "31/10/2011"
      },
      {
        "studyid": "TEST-STUDY",
        "usubjid": "01-011",
        "vstestcd": "SYSBP",
        "vsorres": "149",
        "vsdtc": "20/10/2011"
      },
      {
        "studyid": "TEST-STUDY",
        "usubjid": "13-006",
        "vstestcd": "SYSBP",
        "vsorres": "95",
        "vsdtc": "03/11/2011"
      },
      {
        "studyid": "TEST-STUDY",
        "usubjid": "07-002",
        "vstestcd": "SYSBP",
        "vsorres": "115",
        "vsdtc": "02/11/2011"
      },
      {
        "studyid": "TEST-STUDY",
        "usubjid": "01-012",
        "vstestcd": "SYSBP",
        "vsorres": "139",
        "vsdtc": "21/10/2011"
      },
      {
        "studyid": "TEST-STUDY",
        "usubjid": "13-007",
        "vstestcd": "SYSBP",
        "vsorres": "140",
        "vsdtc": "17/11/2011"
      },
      {
        "studyid": "TEST-STUDY",
        "usubjid": "07-003",
        "vstestcd": "SYSBP",
        "vsorres": "150",
        "vsdtc": "09/11/2011"
      },
      {
        "studyid": "TEST-STUDY",
        "usubjid": "07-004",
        "vstestcd": "SYSBP",
        "vsorres": "130",
        "vsdtc": "16/11/2011"
      },
      {
        "studyid": "TEST-STUDY",
        "usubjid": "11-005",
        "vstestcd": "SYSBP",
        "vsorres": "154",
        "vsdtc": "10/11/2011"
      },
      {
        "studyid": "TEST-STUDY",
        "usubjid": "07-005",
        "vstestcd": "SYSBP",
        "vsorres": "110",
        "vsdtc": "23/11/2011"
      },
      {
        "studyid": "TEST-STUDY",
        "usubjid": "13-008",
        "vstestcd": "SYSBP",
        "vsorres": "",
        "vsdtc": "14/11/2011"
      },
      {
        "studyid": "TEST-STUDY",
        "usubjid": "08-004",
        "vstestcd": "SYSBP",
        "vsorres": "",
        "vsdtc": "09/11/2011"
      },
      {
        "studyid": "TEST-STUDY",
        "usubjid": "13-009",
        "vstestcd": "SYSBP",
        "vsorres": "125",
        "vsdtc": "25/11/2011"
      },
      {
        "studyid": "TEST-STUDY",
        "usubjid": "01-014",
        "vstestcd": "SYSBP",
        "vsorres": "170",
        "vsdtc": "22/11/2011"
      },
      {
        "studyid": "TEST-STUDY",
        "usubjid": "02-002",
        "vstestcd": "SYSBP",
        "vsorres": "",
        "vsdtc": "23/11/2011"
      },
      {
        "studyid": "TEST-STUDY",
        "usubjid": "05-003",
        "vstestcd": "SYSBP",
        "vsorres": "133",
        "vsdtc": "21/12/2011"
      },
      {
        "studyid": "TEST-STUDY",
        "usubjid": "05-004",
        "vstestcd": "SYSBP",
        "vsorres": "125",
        "vsdtc": "20/12/2011"
      },
      {
        "studyid": "TEST-STUDY",
        "usubjid": "02-003",
        "vstestcd": "SYSBP",
        "vsorres": "",
        "vsdtc": "25/11/2011"
      },
      {
        "studyid": "TEST-STUDY",
        "usubjid": "07-007",
        "vstestcd": "SYSBP",
        "vsorres": "140",
        "vsdtc": "30/11/2011"
      },
      {
        "studyid": "TEST-STUDY",
        "usubjid": "07-008",
        "vstestcd": "SYSBP",
        "vsorres": "140",
        "vsdtc": "07/12/2011"
      },
      {
        "studyid": "TEST-STUDY",
        "usubjid": "02-005",
        "vstestcd": "SYSBP",
        "vsorres": "",
        "vsdtc": "30/11/2011"
      },
      {
        "studyid": "TEST-STUDY",
        "usubjid": "02-006",
        "vstestcd": "SYSBP",
        "vsorres": "",
        "vsdtc": "30/11/2011"
      },
      {
        "studyid": "TEST-STUDY",
        "usubjid": "04-001",
        "vstestcd": "SYSBP",
        "vsorres": "111",
        "vsdtc": "01/12/2011"
      },
      {
        "studyid": "TEST-STUDY",
        "usubjid": "13-010",
        "vstestcd": "SYSBP",
        "vsorres": "130",
        "vsdtc": "13/12/2011"
      },
      {
        "studyid": "TEST-STUDY",
        "usubjid": "13-011",
        "vstestcd": "SYSBP",
        "vsorres": "130",
        "vsdtc": "16/12/2011"
      },
      {
        "studyid": "TEST-STUDY",
        "usubjid": "13-012",
        "vstestcd": "SYSBP",
        "vsorres": "125",
        "vsdtc": "03/01/2012"
      },
      {
        "studyid": "TEST-STUDY",
        "usubjid": "02-007",
        "vstestcd": "SYSBP",
        "vsorres": "",
        "vsdtc": "06/12/2011"
      },
      {
        "studyid": "TEST-STUDY",
        "usubjid": "07-009",
        "vstestcd": "SYSBP",
        "vsorres": "110",
        "vsdtc": "14/12/2011"
      },
      {
        "studyid": "TEST-STUDY",
        "usubjid": "05-005",
        "vstestcd": "SYSBP",
        "vsorres": "110",
        "vsdtc": "27/12/2011"
      },
      {
        "studyid": "TEST-STUDY",
        "usubjid": "04-002",
        "vstestcd": "SYSBP",
        "vsorres": "113",
        "vsdtc": "08/12/2011"
      },
      {
        "studyid": "TEST-STUDY",
        "usubjid": "07-010",
        "vstestcd": "SYSBP",
        "vsorres": "110",
        "vsdtc": "04/01/2012"
      },
      {
        "studyid": "TEST-STUDY",
        "usubjid": "02-009",
        "vstestcd": "SYSBP",
        "vsorres": "",
        "vsdtc": "14/12/2011"
      },
      {
        "studyid": "TEST-STUDY",
        "usubjid": "01-015",
        "vstestcd": "SYSBP",
        "vsorres": "164",
        "vsdtc": "19/12/2011"
      },
      {
        "studyid": "TEST-STUDY",
        "usubjid": "07-011",
        "vstestcd": "SYSBP",
        "vsorres": "140",
        "vsdtc": "11/01/2012"
      },
      {
        "studyid": "TEST-STUDY",
        "usubjid": "05-007",
        "vstestcd": "SYSBP",
        "vsorres": "",
        "vsdtc": "28/12/2011"
      },
      {
        "studyid": "TEST-STUDY",
        "usubjid": "05-008",
        "vstestcd": "SYSBP",
        "vsorres": "135",
        "vsdtc": "03/01/2012"
      },
      {
        "studyid": "TEST-STUDY",
        "usubjid": "05-009",
        "vstestcd": "SYSBP",
        "vsorres": "125",
        "vsdtc": "04/01/2012"
      },
      {
        "studyid": "TEST-STUDY",
        "usubjid": "01-016",
        "vstestcd": "SYSBP",
        "vsorres": "139",
        "vsdtc": "29/12/2011"
      },
      {
        "studyid": "TEST-STUDY",
        "usubjid": "02-010",
        "vstestcd": "SYSBP",
        "vsorres": "",
        "vsdtc": "03/01/2012"
      },
      {
        "studyid": "TEST-STUDY",
        "usubjid": "07-012",
        "vstestcd": "SYSBP",
        "vsorres": "90",
        "vsdtc": "18/01/2012"
      },
      {
        "studyid": "TEST-STUDY",
        "usubjid": "04-003",
        "vstestcd": "SYSBP",
        "vsorres": "136",
        "vsdtc": "04/01/2012"
      },
      {
        "studyid": "TEST-STUDY",
        "usubjid": "01-017",
        "vstestcd": "SYSBP",
        "vsorres": "132",
        "vsdtc": "10/01/2012"
      },
      {
        "studyid": "TEST-STUDY",
        "usubjid": "13-013",
        "vstestcd": "SYSBP",
        "vsorres": "115",
        "vsdtc": "25/01/2012"
      },
      {
        "studyid": "TEST-STUDY",
        "usubjid": "13-014",
        "vstestcd": "SYSBP",
        "vsorres": "130",
        "vsdtc": "26/01/2012"
      },
      {
        "studyid": "TEST-STUDY",
        "usubjid": "04-004",
        "vstestcd": "SYSBP",
        "vsorres": "118",
        "vsdtc": "05/01/2012"
      },
      {
        "studyid": "TEST-STUDY",
        "usubjid": "13-015",
        "vstestcd": "SYSBP",
        "vsorres": "120",
        "vsdtc": "08/02/2012"
      },
      {
        "studyid": "TEST-STUDY",
        "usubjid": "02-011",
        "vstestcd": "SYSBP",
        "vsorres": "",
        "vsdtc": "06/01/2012"
      },
      {
        "studyid": "TEST-STUDY",
        "usubjid": "02-012",
        "vstestcd": "SYSBP",
        "vsorres": "",
        "vsdtc": "10/01/2012"
      },
      {
        "studyid": "TEST-STUDY",
        "usubjid": "01-018",
        "vstestcd": "SYSBP",
        "vsorres": "124",
        "vsdtc": "10/01/2012"
      },
      {
        "studyid": "TEST-STUDY",
        "usubjid": "11-008",
        "vstestcd": "SYSBP",
        "vsorres": "122",
        "vsdtc": "17/01/2012"
      },
      {
        "studyid": "TEST-STUDY",
        "usubjid": "04-005",
        "vstestcd": "SYSBP",
        "vsorres": "",
        "vsdtc": "11/01/2012"
      },
      {
        "studyid": "TEST-STUDY",
        "usubjid": "13-016",
        "vstestcd": "SYSBP",
        "vsorres": "140",
        "vsdtc": "30/01/2012"
      },
      {
        "studyid": "TEST-STUDY",
        "usubjid": "08-005",
        "vstestcd": "SYSBP",
        "vsorres": "132",
        "vsdtc": "15/12/2011"
      },
      {
        "studyid": "TEST-STUDY",
        "usubjid": "04-006",
        "vstestcd": "SYSBP",
        "vsorres": "",
        "vsdtc": "12/01/2012"
      },
      {
        "studyid": "TEST-STUDY",
        "usubjid": "08-006",
        "vstestcd": "SYSBP",
        "vsorres": "111",
        "vsdtc": "20/12/2011"
      },
      {
        "studyid": "TEST-STUDY",
        "usubjid": "08-007",
        "vstestcd": "SYSBP",
        "vsorres": "120",
        "vsdtc": "11/01/2012"
      },
      {
        "studyid": "TEST-STUDY",
        "usubjid": "11-010",
        "vstestcd": "SYSBP",
        "vsorres": "141",
        "vsdtc": "18/01/2012"
      },
      {
        "studyid": "TEST-STUDY",
        "usubjid": "11-011",
        "vstestcd": "SYSBP",
        "vsorres": "125",
        "vsdtc": "25/01/2012"
      },
      {
        "studyid": "TEST-STUDY",
        "usubjid": "06-001",
        "vstestcd": "SYSBP",
        "vsorres": "120",
        "vsdtc": "24/01/2012"
      },
      {
        "studyid": "TEST-STUDY",
        "usubjid": "07-013",
        "vstestcd": "SYSBP",
        "vsorres": "115",
        "vsdtc": "25/01/2012"
      },
      {
        "studyid": "TEST-STUDY",
        "usubjid": "02-013",
        "vstestcd": "SYSBP",
        "vsorres": "",
        "vsdtc": "18/01/2012"
      },
      {
        "studyid": "TEST-STUDY",
        "usubjid": "04-007",
        "vstestcd": "SYSBP",
        "vsorres": "",
        "vsdtc": "18/01/2012"
      },
      {
        "studyid": "TEST-STUDY",
        "usubjid": "04-008",
        "vstestcd": "SYSBP",
        "vsorres": "",
        "vsdtc": "19/01/2012"
      },
      {
        "studyid": "TEST-STUDY",
        "usubjid": "11-013",
        "vstestcd": "SYSBP",
        "vsorres": "126",
        "vsdtc": "31/01/2012"
      },
      {
        "studyid": "TEST-STUDY",
        "usubjid": "11-014",
        "vstestcd": "SYSBP",
        "vsorres": "129",
        "vsdtc": "31/01/2012"
      },
      {
        "studyid": "TEST-STUDY",
        "usubjid": "11-015",
        "vstestcd": "SYSBP",
        "vsorres": "112",
        "vsdtc": "03/02/2012"
      },
      {
        "studyid": "TEST-STUDY",
        "usubjid": "11-016",
        "vstestcd": "SYSBP",
        "vsorres": "110",
        "vsdtc": "08/02/2012"
      },
      {
        "studyid": "TEST-STUDY",
        "usubjid": "01-019",
        "vstestcd": "SYSBP",
        "vsorres": "135",
        "vsdtc": "30/01/2012"
      },
      {
        "studyid": "TEST-STUDY",
        "usubjid": "02-015",
        "vstestcd": "SYSBP",
        "vsorres": "",
        "vsdtc": "30/01/2012"
      },
      {
        "studyid": "TEST-STUDY",
        "usubjid": "08-008",
        "vstestcd": "SYSBP",
        "vsorres": "",
        "vsdtc": "25/01/2012"
      },
      {
        "studyid": "TEST-STUDY",
        "usubjid": "02-016",
        "vstestcd": "SYSBP",
        "vsorres": "",
        "vsdtc": "31/01/2012"
      },
      {
        "studyid": "TEST-STUDY",
        "usubjid": "09-001",
        "vstestcd": "SYSBP",
        "vsorres": "",
        "vsdtc": "31/01/2012"
      },
      {
        "studyid": "TEST-STUDY",
        "usubjid": "07-014",
        "vstestcd": "SYSBP",
        "vsorres": "130",
        "vsdtc": "01/02/2012"
      },
      {
        "studyid": "TEST-STUDY",
        "usubjid": "04-009",
        "vstestcd": "SYSBP",
        "vsorres": "122",
        "vsdtc": "01/02/2012"
      },
      {
        "studyid": "TEST-STUDY",
        "usubjid": "13-017",
        "vstestcd": "SYSBP",
        "vsorres": "130",
        "vsdtc": "17/02/2012"
      },
      {
        "studyid": "TEST-STUDY",
        "usubjid": "13-018",
        "vstestcd": "SYSBP",
        "vsorres": "120",
        "vsdtc": "16/02/2012"
      },
      {
        "studyid": "TEST-STUDY",
        "usubjid": "05-010",
        "vstestcd": "SYSBP",
        "vsorres": "120",
        "vsdtc": "18/02/2012"
      },
      {
        "studyid": "TEST-STUDY",
        "usubjid": "02-018",
        "vstestcd": "SYSBP",
        "vsorres": "",
        "vsdtc": "07/02/2012"
      },
      {
        "studyid": "TEST-STUDY",
        "usubjid": "04-010",
        "vstestcd": "SYSBP",
        "vsorres": "129",
        "vsdtc": "08/02/2012"
      },
      {
        "studyid": "TEST-STUDY",
        "usubjid": "06-002",
        "vstestcd": "SYSBP",
        "vsorres": "125",
        "vsdtc": "14/02/2012"
      },
      {
        "studyid": "TEST-STUDY",
        "usubjid": "04-011",
        "vstestcd": "SYSBP",
        "vsorres": "",
        "vsdtc": "09/02/2012"
      },
      {
        "studyid": "TEST-STUDY",
        "usubjid": "01-020",
        "vstestcd": "SYSBP",
        "vsorres": "128",
        "vsdtc": "10/02/2012"
      },
      {
        "studyid": "TEST-STUDY",
        "usubjid": "05-011",
        "vstestcd": "SYSBP",
        "vsorres": "120",
        "vsdtc": "25/02/2012"
      },
      {
        "studyid": "TEST-STUDY",
        "usubjid": "07-015",
        "vstestcd": "SYSBP",
        "vsorres": "130",
        "vsdtc": "22/02/2012"
      },
      {
        "studyid": "TEST-STUDY",
        "usubjid": "04-012",
        "vstestcd": "SYSBP",
        "vsorres": "103",
        "vsdtc": "15/02/2012"
      },
      {
        "studyid": "TEST-STUDY",
        "usubjid": "02-020",
        "vstestcd": "SYSBP",
        "vsorres": "",
        "vsdtc": "16/02/2012"
      },
      {
        "studyid": "TEST-STUDY",
        "usubjid": "02-022",
        "vstestcd": "SYSBP",
        "vsorres": "",
        "vsdtc": "26/03/2012"
      },
      {
        "studyid": "TEST-STUDY",
        "usubjid": "07-016",
        "vstestcd": "SYSBP",
        "vsorres": "125",
        "vsdtc": "29/02/2012"
      },
      {
        "studyid": "TEST-STUDY",
        "usubjid": "05-012",
        "vstestcd": "SYSBP",
        "vsorres": "125",
        "vsdtc": "14/03/2012"
      },
      {
        "studyid": "TEST-STUDY",
        "usubjid": "02-023",
        "vstestcd": "SYSBP",
        "vsorres": "",
        "vsdtc": "21/02/2012"
      },
      {
        "studyid": "TEST-STUDY",
        "usubjid": "14-001",
        "vstestcd": "SYSBP",
        "vsorres": "122",
        "vsdtc": "15/03/2012"
      },
      {
        "studyid": "TEST-STUDY",
        "usubjid": "02-024",
        "vstestcd": "SYSBP",
        "vsorres": "115",
        "vsdtc": "21/02/2012"
      },
      {
        "studyid": "TEST-STUDY",
        "usubjid": "11-017",
        "vstestcd": "SYSBP",
        "vsorres": "90",
        "vsdtc": "24/02/2012"
      },
      {
        "studyid": "TEST-STUDY",
        "usubjid": "04-013",
        "vstestcd": "SYSBP",
        "vsorres": "128",
        "vsdtc": "22/02/2012"
      },
      {
        "studyid": "TEST-STUDY",
        "usubjid": "02-025",
        "vstestcd": "SYSBP",
        "vsorres": "",
        "vsdtc": "22/02/2012"
      },
      {
        "studyid": "TEST-STUDY",
        "usubjid": "05-013",
        "vstestcd": "SYSBP",
        "vsorres": "120",
        "vsdtc": "08/03/2012"
      },
      {
        "studyid": "TEST-STUDY",
        "usubjid": "05-014",
        "vstestcd": "SYSBP",
        "vsorres": "125",
        "vsdtc": "08/03/2012"
      },
      {
        "studyid": "TEST-STUDY",
        "usubjid": "04-014",
        "vstestcd": "SYSBP",
        "vsorres": "142",
        "vsdtc": "23/02/2012"
      },
      {
        "studyid": "TEST-STUDY",
        "usubjid": "12-002",
        "vstestcd": "SYSBP",
        "vsorres": "",
        "vsdtc": "27/02/2012"
      },
      {
        "studyid": "TEST-STUDY",
        "usubjid": "06-004",
        "vstestcd": "SYSBP",
        "vsorres": "",
        "vsdtc": "27/02/2012"
      },
      {
        "studyid": "TEST-STUDY",
        "usubjid": "09-004",
        "vstestcd": "SYSBP",
        "vsorres": "",
        "vsdtc": "28/02/2012"
      },
      {
        "studyid": "TEST-STUDY",
        "usubjid": "09-005",
        "vstestcd": "SYSBP",
        "vsorres": "",
        "vsdtc": "22/03/2012"
      },
      {
        "studyid": "TEST-STUDY",
        "usubjid": "09-006",
        "vstestcd": "SYSBP",
        "vsorres": "",
        "vsdtc": "24/05/2012"
      },
      {
        "studyid": "TEST-STUDY",
        "usubjid": "11-018",
        "vstestcd": "SYSBP",
        "vsorres": "127",
        "vsdtc": "01/03/2012"
      },
      {
        "studyid": "TEST-STUDY",
        "usubjid": "07-017",
        "vstestcd": "SYSBP",
        "vsorres": "90",
        "vsdtc": "07/03/2012"
      },
      {
        "studyid": "TEST-STUDY",
        "usubjid": "06-005",
        "vstestcd": "SYSBP",
        "vsorres": "110",
        "vsdtc": "12/03/2012"
      },
      {
        "studyid": "TEST-STUDY",
        "usubjid": "04-015",
        "vstestcd": "SYSBP",
        "vsorres": "",
        "vsdtc": "01/03/2012"
      },
      {
        "studyid": "TEST-STUDY",
        "usubjid": "04-016",
        "vstestcd": "SYSBP",
        "vsorres": "",
        "vsdtc": "01/03/2012"
      },
      {
        "studyid": "TEST-STUDY",
        "usubjid": "04-017",
        "vstestcd": "SYSBP",
        "vsorres": "",
        "vsdtc": "02/03/2012"
      },
      {
        "studyid": "TEST-STUDY",
        "usubjid": "01-021",
        "vstestcd": "SYSBP",
        "vsorres": "119",
        "vsdtc": "05/03/2012"
      },
      {
        "studyid": "TEST-STUDY",
        "usubjid": "02-027",
        "vstestcd": "SYSBP",
        "vsorres": "125",
        "vsdtc": "05/03/2012"
      },
      {
        "studyid": "TEST-STUDY",
        "usubjid": "05-015",
        "vstestcd": "SYSBP",
        "vsorres": "",
        "vsdtc": ""
      },
      {
        "studyid": "TEST-STUDY",
        "usubjid": "07-018",
        "vstestcd": "SYSBP",
        "vsorres": "105",
        "vsdtc": "07/03/2012"
      },
      {
        "studyid": "TEST-STUDY",
        "usubjid": "02-028",
        "vstestcd": "SYSBP",
        "vsorres": "124",
        "vsdtc": "07/03/2012"
      },
      {
        "studyid": "TEST-STUDY",
        "usubjid": "04-018",
        "vstestcd": "SYSBP",
        "vsorres": "132",
        "vsdtc": "08/03/2012"
      },
      {
        "studyid": "TEST-STUDY",
        "usubjid": "13-019",
        "vstestcd": "SYSBP",
        "vsorres": "120",
        "vsdtc": "05/03/2012"
      },
      {
        "studyid": "TEST-STUDY",
        "usubjid": "09-007",
        "vstestcd": "SYSBP",
        "vsorres": "",
        "vsdtc": "12/03/2012"
      },
      {
        "studyid": "TEST-STUDY",
        "usubjid": "02-029",
        "vstestcd": "SYSBP",
        "vsorres": "",
        "vsdtc": "12/03/2012"
      },
      {
        "studyid": "TEST-STUDY",
        "usubjid": "07-019",
        "vstestcd": "SYSBP",
        "vsorres": "130",
        "vsdtc": "28/03/2012"
      },
      {
        "studyid": "TEST-STUDY",
        "usubjid": "02-030",
        "vstestcd": "SYSBP",
        "vsorres": "152",
        "vsdtc": "15/03/2012"
      },
      {
        "studyid": "TEST-STUDY",
        "usubjid": "13-020",
        "vstestcd": "SYSBP",
        "vsorres": "110",
        "vsdtc": "15/03/2012"
      },
      {
        "studyid": "TEST-STUDY",
        "usubjid": "13-021",
        "vstestcd": "SYSBP",
        "vsorres": "120",
        "vsdtc": "16/03/2012"
      },
      {
        "studyid": "TEST-STUDY",
        "usubjid": "13-022",
        "vstestcd": "SYSBP",
        "vsorres": "130",
        "vsdtc": "19/03/2012"
      },
      {
        "studyid": "TEST-STUDY",
        "usubjid": "08-009",
        "vstestcd": "SYSBP",
        "vsorres": "108",
        "vsdtc": "01/02/2012"
      },
      {
        "studyid": "TEST-STUDY",
        "usubjid": "08-010",
        "vstestcd": "SYSBP",
        "vsorres": "133",
        "vsdtc": "13/03/2012"
      },
      {
        "studyid": "TEST-STUDY",
        "usubjid": "08-011",
        "vstestcd": "SYSBP",
        "vsorres": "126",
        "vsdtc": "19/03/2012"
      },
      {
        "studyid": "TEST-STUDY",
        "usubjid": "02-031",
        "vstestcd": "SYSBP",
        "vsorres": "",
        "vsdtc": "19/03/2012"
      },
      {
        "studyid": "TEST-STUDY",
        "usubjid": "02-032",
        "vstestcd": "SYSBP",
        "vsorres": "",
        "vsdtc": "20/03/2012"
      },
      {
        "studyid": "TEST-STUDY",
        "usubjid": "02-033",
        "vstestcd": "SYSBP",
        "vsorres": "",
        "vsdtc": "20/03/2012"
      },
      {
        "studyid": "TEST-STUDY",
        "usubjid": "07-020",
        "vstestcd": "SYSBP",
        "vsorres": "130",
        "vsdtc": "28/03/2012"
      },
      {
        "studyid": "TEST-STUDY",
        "usubjid": "02-034",
        "vstestcd": "SYSBP",
        "vsorres": "",
        "vsdtc": "21/03/2012"
      },
      {
        "studyid": "TEST-STUDY",
        "usubjid": "02-035",
        "vstestcd": "SYSBP",
        "vsorres": "",
        "vsdtc": "22/03/2012"
      },
      {
        "studyid": "TEST-STUDY",
        "usubjid": "12-003",
        "vstestcd": "SYSBP",
        "vsorres": "137",
        "vsdtc": "23/03/2012"
      },
      {
        "studyid": "TEST-STUDY",
        "usubjid": "03-002",
        "vstestcd": "SYSBP",
        "vsorres": "",
        "vsdtc": "29/03/2012"
      },
      {
        "studyid": "TEST-STUDY",
        "usubjid": "03-003",
        "vstestcd": "SYSBP",
        "vsorres": "",
        "vsdtc": "23/03/2012"
      },
      {
        "studyid": "TEST-STUDY",
        "usubjid": "12-004",
        "vstestcd": "SYSBP",
        "vsorres": "",
        "vsdtc": "26/03/2012"
      },
      {
        "studyid": "TEST-STUDY",
        "usubjid": "01-022",
        "vstestcd": "SYSBP",
        "vsorres": "134",
        "vsdtc": "26/03/2012"
      },
      {
        "studyid": "TEST-STUDY",
        "usubjid": "01-023",
        "vstestcd": "SYSBP",
        "vsorres": "124",
        "vsdtc": "04/04/2012"
      },
      {
        "studyid": "TEST-STUDY",
        "usubjid": "12-005",
        "vstestcd": "SYSBP",
        "vsorres": "",
        "vsdtc": "27/03/2012"
      },
      {
        "studyid": "TEST-STUDY",
        "usubjid": "02-036",
        "vstestcd": "SYSBP",
        "vsorres": "",
        "vsdtc": "13/04/2012"
      },
      {
        "studyid": "TEST-STUDY",
        "usubjid": "05-016",
        "vstestcd": "SYSBP",
        "vsorres": "110",
        "vsdtc": "04/04/2012"
      },
      {
        "studyid": "TEST-STUDY",
        "usubjid": "05-017",
        "vstestcd": "SYSBP",
        "vsorres": "120",
        "vsdtc": "04/04/2012"
      },
      {
        "studyid": "TEST-STUDY",
        "usubjid": "06-006",
        "vstestcd": "SYSBP",
        "vsorres": "140",
        "vsdtc": "04/04/2012"
      },
      {
        "studyid": "TEST-STUDY",
        "usubjid": "05-018",
        "vstestcd": "SYSBP",
        "vsorres": "120",
        "vsdtc": "17/04/2012"
      },
      {
        "studyid": "TEST-STUDY",
        "usubjid": "04-019",
        "vstestcd": "SYSBP",
        "vsorres": "163",
        "vsdtc": "30/03/2012"
      },
      {
        "studyid": "TEST-STUDY",
        "usubjid": "04-020",
        "vstestcd": "SYSBP",
        "vsorres": "",
        "vsdtc": "30/03/2012"
      },
      {
        "studyid": "TEST-STUDY",
        "usubjid": "02-037",
        "vstestcd": "SYSBP",
        "vsorres": "107",
        "vsdtc": "05/04/2012"
      },
      {
        "studyid": "TEST-STUDY",
        "usubjid": "02-038",
        "vstestcd": "SYSBP",
        "vsorres": "",
        "vsdtc": "03/04/2012"
      },
      {
        "studyid": "TEST-STUDY",
        "usubjid": "07-021",
        "vstestcd": "SYSBP",
        "vsorres": "130",
        "vsdtc": "11/04/2012"
      },
      {
        "studyid": "TEST-STUDY",
        "usubjid": "07-022",
        "vstestcd": "SYSBP",
        "vsorres": "",
        "vsdtc": "03/04/2012"
      },
      {
        "studyid": "TEST-STUDY",
        "usubjid": "05-019",
        "vstestcd": "SYSBP",
        "vsorres": "110",
        "vsdtc": "27/04/2012"
      },
      {
        "studyid": "TEST-STUDY",
        "usubjid": "03-004",
        "vstestcd": "SYSBP",
        "vsorres": "",
        "vsdtc": "05/04/2012"
      },
      {
        "studyid": "TEST-STUDY",
        "usubjid": "01-024",
        "vstestcd": "SYSBP",
        "vsorres": "154",
        "vsdtc": "10/04/2012"
      },
      {
        "studyid": "TEST-STUDY",
        "usubjid": "13-023",
        "vstestcd": "SYSBP",
        "vsorres": "125",
        "vsdtc": "12/04/2012"
      },
      {
        "studyid": "TEST-STUDY",
        "usubjid": "07-023",
        "vstestcd": "SYSBP",
        "vsorres": "145",
        "vsdtc": "11/04/2012"
      },
      {
        "studyid": "TEST-STUDY",
        "usubjid": "04-021",
        "vstestcd": "SYSBP",
        "vsorres": "131",
        "vsdtc": "12/04/2012"
      },
      {
        "studyid": "TEST-STUDY",
        "usubjid": "14-005",
        "vstestcd": "SYSBP",
        "vsorres": "140",
        "vsdtc": "10/05/2012"
      },
      {
        "studyid": "TEST-STUDY",
        "usubjid": "03-005",
        "vstestcd": "SYSBP",
        "vsorres": "",
        "vsdtc": "13/04/2012"
      },
      {
        "studyid": "TEST-STUDY",
        "usubjid": "04-022",
        "vstestcd": "SYSBP",
        "vsorres": "129",
        "vsdtc": "13/04/2012"
      },
      {
        "studyid": "TEST-STUDY",
        "usubjid": "12-006",
        "vstestcd": "SYSBP",
        "vsorres": "",
        "vsdtc": "16/04/2012"
      },
      {
        "studyid": "TEST-STUDY",
        "usubjid": "11-019",
        "vstestcd": "SYSBP",
        "vsorres": "133",
        "vsdtc": "16/04/2012"
      },
      {
        "studyid": "TEST-STUDY",
        "usubjid": "02-039",
        "vstestcd": "SYSBP",
        "vsorres": "",
        "vsdtc": "02/05/2012"
      },
      {
        "studyid": "TEST-STUDY",
        "usubjid": "05-020",
        "vstestcd": "SYSBP",
        "vsorres": "120",
        "vsdtc": "17/04/2012"
      },
      {
        "studyid": "TEST-STUDY",
        "usubjid": "01-025",
        "vstestcd": "SYSBP",
        "vsorres": "132",
        "vsdtc": "18/04/2012"
      },
      {
        "studyid": "TEST-STUDY",
        "usubjid": "03-006",
        "vstestcd": "SYSBP",
        "vsorres": "144",
        "vsdtc": "09/05/2012"
      },
      {
        "studyid": "TEST-STUDY",
        "usubjid": "03-007",
        "vstestcd": "SYSBP",
        "vsorres": "112",
        "vsdtc": "03/05/2012"
      },
      {
        "studyid": "TEST-STUDY",
        "usubjid": "05-021",
        "vstestcd": "SYSBP",
        "vsorres": "120",
        "vsdtc": "08/05/2012"
      },
      {
        "studyid": "TEST-STUDY",
        "usubjid": "14-006",
        "vstestcd": "SYSBP",
        "vsorres": "145",
        "vsdtc": "19/04/2012"
      },
      {
        "studyid": "TEST-STUDY",
        "usubjid": "04-023",
        "vstestcd": "SYSBP",
        "vsorres": "131",
        "vsdtc": "19/04/2012"
      },
      {
        "studyid": "TEST-STUDY",
        "usubjid": "04-024",
        "vstestcd": "SYSBP",
        "vsorres": "117",
        "vsdtc": "19/04/2012"
      },
      {
        "studyid": "TEST-STUDY",
        "usubjid": "05-022",
        "vstestcd": "SYSBP",
        "vsorres": "120",
        "vsdtc": "03/05/2012"
      },
      {
        "studyid": "TEST-STUDY",
        "usubjid": "01-026",
        "vstestcd": "SYSBP",
        "vsorres": "112",
        "vsdtc": "12/10/2011"
      },
      {
        "studyid": "TEST-STUDY",
        "usubjid": "09-009",
        "vstestcd": "SYSBP",
        "vsorres": "",
        "vsdtc": "24/04/2012"
      },
      {
        "studyid": "TEST-STUDY",
        "usubjid": "09-010",
        "vstestcd": "SYSBP",
        "vsorres": "",
        "vsdtc": "25/04/2012"
      },
      {
        "studyid": "TEST-STUDY",
        "usubjid": "01-027",
        "vstestcd": "SYSBP",
        "vsorres": "168",
        "vsdtc": "23/04/2012"
      },
      {
        "studyid": "TEST-STUDY",
        "usubjid": "05-023",
        "vstestcd": "SYSBP",
        "vsorres": "",
        "vsdtc": "24/04/2012"
      },
      {
        "studyid": "TEST-STUDY",
        "usubjid": "02-041",
        "vstestcd": "SYSBP",
        "vsorres": "",
        "vsdtc": "24/04/2012"
      },
      {
        "studyid": "TEST-STUDY",
        "usubjid": "07-024",
        "vstestcd": "SYSBP",
        "vsorres": "",
        "vsdtc": "24/04/2012"
      },
      {
        "studyid": "TEST-STUDY",
        "usubjid": "06-007",
        "vstestcd": "SYSBP",
        "vsorres": "110",
        "vsdtc": "08/05/2012"
      },
      {
        "studyid": "TEST-STUDY",
        "usubjid": "04-025",
        "vstestcd": "SYSBP",
        "vsorres": "136",
        "vsdtc": "26/04/2012"
      },
      {
        "studyid": "TEST-STUDY",
        "usubjid": "05-024",
        "vstestcd": "SYSBP",
        "vsorres": "100",
        "vsdtc": "03/05/2012"
      },
      {
        "studyid": "TEST-STUDY",
        "usubjid": "04-026",
        "vstestcd": "SYSBP",
        "vsorres": "128",
        "vsdtc": "26/04/2012"
      },
      {
        "studyid": "TEST-STUDY",
        "usubjid": "02-042",
        "vstestcd": "SYSBP",
        "vsorres": "",
        "vsdtc": "16/05/2012"
      },
      {
        "studyid": "TEST-STUDY",
        "usubjid": "03-008",
        "vstestcd": "SYSBP",
        "vsorres": "",
        "vsdtc": "26/04/2012"
      },
      {
        "studyid": "TEST-STUDY",
        "usubjid": "14-009",
        "vstestcd": "SYSBP",
        "vsorres": "139",
        "vsdtc": "05/02/2013"
      },
      {
        "studyid": "TEST-STUDY",
        "usubjid": "04-027",
        "vstestcd": "SYSBP",
        "vsorres": "111",
        "vsdtc": "27/04/2012"
      },
      {
        "studyid": "TEST-STUDY",
        "usubjid": "04-028",
        "vstestcd": "SYSBP",
        "vsorres": "112",
        "vsdtc": "27/04/2012"
      },
      {
        "studyid": "TEST-STUDY",
        "usubjid": "03-009",
        "vstestcd": "SYSBP",
        "vsorres": "",
        "vsdtc": "27/04/2012"
      },
      {
        "studyid": "TEST-STUDY",
        "usubjid": "14-010",
        "vstestcd": "SYSBP",
        "vsorres": "120",
        "vsdtc": "27/06/2012"
      },
      {
        "studyid": "TEST-STUDY",
        "usubjid": "09-011",
        "vstestcd": "SYSBP",
        "vsorres": "",
        "vsdtc": "04/05/2012"
      },
      {
        "studyid": "TEST-STUDY",
        "usubjid": "02-043",
        "vstestcd": "SYSBP",
        "vsorres": "",
        "vsdtc": "30/04/2012"
      },
      {
        "studyid": "TEST-STUDY",
        "usubjid": "08-012",
        "vstestcd": "SYSBP",
        "vsorres": "",
        "vsdtc": "30/04/2012"
      },
      {
        "studyid": "TEST-STUDY",
        "usubjid": "06-008",
        "vstestcd": "SYSBP",
        "vsorres": "174",
        "vsdtc": "02/05/2012"
      },
      {
        "studyid": "TEST-STUDY",
        "usubjid": "04-029",
        "vstestcd": "SYSBP",
        "vsorres": "141",
        "vsdtc": "03/05/2012"
      },
      {
        "studyid": "TEST-STUDY",
        "usubjid": "04-030",
        "vstestcd": "SYSBP",
        "vsorres": "142",
        "vsdtc": "03/05/2012"
      },
      {
        "studyid": "TEST-STUDY",
        "usubjid": "03-010",
        "vstestcd": "SYSBP",
        "vsorres": "",
        "vsdtc": "03/05/2012"
      },
      {
        "studyid": "TEST-STUDY",
        "usubjid": "09-012",
        "vstestcd": "SYSBP",
        "vsorres": "",
        "vsdtc": "07/06/2012"
      },
      {
        "studyid": "TEST-STUDY",
        "usubjid": "09-013",
        "vstestcd": "SYSBP",
        "vsorres": "",
        "vsdtc": "04/05/2012"
      },
      {
        "studyid": "TEST-STUDY",
        "usubjid": "04-031",
        "vstestcd": "SYSBP",
        "vsorres": "120",
        "vsdtc": "08/05/2012"
      },
      {
        "studyid": "TEST-STUDY",
        "usubjid": "10-001",
        "vstestcd": "SYSBP",
        "vsorres": "125",
        "vsdtc": "14/06/2012"
      },
      {
        "studyid": "TEST-STUDY",
        "usubjid": "13-024",
        "vstestcd": "SYSBP",
        "vsorres": "105",
        "vsdtc": "14/05/2012"
      },
      {
        "studyid": "TEST-STUDY",
        "usubjid": "04-032",
        "vstestcd": "SYSBP",
        "vsorres": "146",
        "vsdtc": "10/05/2012"
      },
      {
        "studyid": "TEST-STUDY",
        "usubjid": "03-011",
        "vstestcd": "SYSBP",
        "vsorres": "",
        "vsdtc": "10/05/2012"
      },
      {
        "studyid": "TEST-STUDY",
        "usubjid": "04-033",
        "vstestcd": "SYSBP",
        "vsorres": "145",
        "vsdtc": "11/05/2012"
      },
      {
        "studyid": "TEST-STUDY",
        "usubjid": "04-034",
        "vstestcd": "SYSBP",
        "vsorres": "",
        "vsdtc": "11/05/2012"
      },
      {
        "studyid": "TEST-STUDY",
        "usubjid": "11-023",
        "vstestcd": "SYSBP",
        "vsorres": "136",
        "vsdtc": "14/05/2012"
      },
      {
        "studyid": "TEST-STUDY",
        "usubjid": "02-044",
        "vstestcd": "SYSBP",
        "vsorres": "",
        "vsdtc": "14/05/2012"
      },
      {
        "studyid": "TEST-STUDY",
        "usubjid": "08-013",
        "vstestcd": "SYSBP",
        "vsorres": "",
        "vsdtc": "14/05/2012"
      },
      {
        "studyid": "TEST-STUDY",
        "usubjid": "09-014",
        "vstestcd": "SYSBP",
        "vsorres": "",
        "vsdtc": "24/05/2012"
      },
      {
        "studyid": "TEST-STUDY",
        "usubjid": "02-045",
        "vstestcd": "SYSBP",
        "vsorres": "121",
        "vsdtc": "21/05/2012"
      },
      {
        "studyid": "TEST-STUDY",
        "usubjid": "07-025",
        "vstestcd": "SYSBP",
        "vsorres": "134",
        "vsdtc": "16/05/2012"
      },
      {
        "studyid": "TEST-STUDY",
        "usubjid": "07-026",
        "vstestcd": "SYSBP",
        "vsorres": "",
        "vsdtc": "16/05/2012"
      },
      {
        "studyid": "TEST-STUDY",
        "usubjid": "07-027",
        "vstestcd": "SYSBP",
        "vsorres": "135",
        "vsdtc": "30/05/2012"
      },
      {
        "studyid": "TEST-STUDY",
        "usubjid": "02-046",
        "vstestcd": "SYSBP",
        "vsorres": "122",
        "vsdtc": "22/05/2012"
      },
      {
        "studyid": "TEST-STUDY",
        "usubjid": "05-026",
        "vstestcd": "SYSBP",
        "vsorres": "120",
        "vsdtc": "12/06/2012"
      },
      {
        "studyid": "TEST-STUDY",
        "usubjid": "05-027",
        "vstestcd": "SYSBP",
        "vsorres": "120",
        "vsdtc": "25/05/2012"
      },
      {
        "studyid": "TEST-STUDY",
        "usubjid": "05-028",
        "vstestcd": "SYSBP",
        "vsorres": "125",
        "vsdtc": "01/06/2012"
      },
      {
        "studyid": "TEST-STUDY",
        "usubjid": "10-002",
        "vstestcd": "SYSBP",
        "vsorres": "162",
        "vsdtc": "04/07/2012"
      },
      {
        "studyid": "TEST-STUDY",
        "usubjid": "04-035",
        "vstestcd": "SYSBP",
        "vsorres": "120",
        "vsdtc": "24/05/2012"
      },
      {
        "studyid": "TEST-STUDY",
        "usubjid": "04-036",
        "vstestcd": "SYSBP",
        "vsorres": "",
        "vsdtc": "24/05/2012"
      },
      {
        "studyid": "TEST-STUDY",
        "usubjid": "10-003",
        "vstestcd": "SYSBP",
        "vsorres": "134",
        "vsdtc": "02/07/2012"
      },
      {
        "studyid": "TEST-STUDY",
        "usubjid": "04-037",
        "vstestcd": "SYSBP",
        "vsorres": "116",
        "vsdtc": "25/05/2012"
      },
      {
        "studyid": "TEST-STUDY",
        "usubjid": "04-038",
        "vstestcd": "SYSBP",
        "vsorres": "145",
        "vsdtc": "25/05/2012"
      },
      {
        "studyid": "TEST-STUDY",
        "usubjid": "02-048",
        "vstestcd": "SYSBP",
        "vsorres": "",
        "vsdtc": "29/05/2012"
      },
      {
        "studyid": "TEST-STUDY",
        "usubjid": "09-015",
        "vstestcd": "SYSBP",
        "vsorres": "",
        "vsdtc": "30/05/2012"
      },
      {
        "studyid": "TEST-STUDY",
        "usubjid": "09-016",
        "vstestcd": "SYSBP",
        "vsorres": "",
        "vsdtc": "30/05/2012"
      },
      {
        "studyid": "TEST-STUDY",
        "usubjid": "13-025",
        "vstestcd": "SYSBP",
        "vsorres": "105",
        "vsdtc": "21/06/2012"
      },
      {
        "studyid": "TEST-STUDY",
        "usubjid": "04-039",
        "vstestcd": "SYSBP",
        "vsorres": "",
        "vsdtc": "01/06/2012"
      },
      {
        "studyid": "TEST-STUDY",
        "usubjid": "01-028",
        "vstestcd": "SYSBP",
        "vsorres": "154",
        "vsdtc": "04/06/2012"
      },
      {
        "studyid": "TEST-STUDY",
        "usubjid": "15-001",
        "vstestcd": "SYSBP",
        "vsorres": "174",
        "vsdtc": "18/06/2012"
      },
      {
        "studyid": "TEST-STUDY",
        "usubjid": "07-028",
        "vstestcd": "SYSBP",
        "vsorres": "120",
        "vsdtc": "06/06/2012"
      },
      {
        "studyid": "TEST-STUDY",
        "usubjid": "01-029",
        "vstestcd": "SYSBP",
        "vsorres": "119",
        "vsdtc": "06/06/2012"
      },
      {
        "studyid": "TEST-STUDY",
        "usubjid": "08-014",
        "vstestcd": "SYSBP",
        "vsorres": "116",
        "vsdtc": "04/06/2012"
      },
      {
        "studyid": "TEST-STUDY",
        "usubjid": "09-017",
        "vstestcd": "SYSBP",
        "vsorres": "",
        "vsdtc": "07/06/2012"
      },
      {
        "studyid": "TEST-STUDY",
        "usubjid": "08-015",
        "vstestcd": "SYSBP",
        "vsorres": "",
        "vsdtc": "29/05/2012"
      },
      {
        "studyid": "TEST-STUDY",
        "usubjid": "05-029",
        "vstestcd": "SYSBP",
        "vsorres": "120",
        "vsdtc": "08/06/2012"
      },
      {
        "studyid": "TEST-STUDY",
        "usubjid": "04-040",
        "vstestcd": "SYSBP",
        "vsorres": "143",
        "vsdtc": "08/06/2012"
      },
      {
        "studyid": "TEST-STUDY",
        "usubjid": "02-050",
        "vstestcd": "SYSBP",
        "vsorres": "",
        "vsdtc": "11/06/2012"
      },
      {
        "studyid": "TEST-STUDY",
        "usubjid": "09-018",
        "vstestcd": "SYSBP",
        "vsorres": "",
        "vsdtc": "11/06/2012"
      },
      {
        "studyid": "TEST-STUDY",
        "usubjid": "14-011",
        "vstestcd": "SYSBP",
        "vsorres": "119",
        "vsdtc": "11/07/2012"
      },
      {
        "studyid": "TEST-STUDY",
        "usubjid": "02-051",
        "vstestcd": "SYSBP",
        "vsorres": "",
        "vsdtc": "12/06/2012"
      },
      {
        "studyid": "TEST-STUDY",
        "usubjid": "14-012",
        "vstestcd": "SYSBP",
        "vsorres": "134",
        "vsdtc": "22/06/2012"
      },
      {
        "studyid": "TEST-STUDY",
        "usubjid": "15-002",
        "vstestcd": "SYSBP",
        "vsorres": "97",
        "vsdtc": "13/06/2012"
      },
      {
        "studyid": "TEST-STUDY",
        "usubjid": "01-030",
        "vstestcd": "SYSBP",
        "vsorres": "123",
        "vsdtc": "13/06/2012"
      },
      {
        "studyid": "TEST-STUDY",
        "usubjid": "05-030",
        "vstestcd": "SYSBP",
        "vsorres": "120",
        "vsdtc": "13/07/2012"
      },
      {
        "studyid": "TEST-STUDY",
        "usubjid": "02-052",
        "vstestcd": "SYSBP",
        "vsorres": "",
        "vsdtc": "18/06/2012"
      },
      {
        "studyid": "TEST-STUDY",
        "usubjid": "10-004",
        "vstestcd": "SYSBP",
        "vsorres": "130",
        "vsdtc": "13/06/2012"
      },
      {
        "studyid": "TEST-STUDY",
        "usubjid": "14-015",
        "vstestcd": "SYSBP",
        "vsorres": "120",
        "vsdtc": "28/06/2012"
      },
      {
        "studyid": "TEST-STUDY",
        "usubjid": "02-053",
        "vstestcd": "SYSBP",
        "vsorres": "",
        "vsdtc": "25/06/2012"
      },
      {
        "studyid": "TEST-STUDY",
        "usubjid": "02-054",
        "vstestcd": "SYSBP",
        "vsorres": "",
        "vsdtc": "19/06/2012"
      },
      {
        "studyid": "TEST-STUDY",
        "usubjid": "02-055",
        "vstestcd": "SYSBP",
        "vsorres": "",
        "vsdtc": "20/06/2012"
      },
      {
        "studyid": "TEST-STUDY",
        "usubjid": "03-014",
        "vstestcd": "SYSBP",
        "vsorres": "",
        "vsdtc": "20/06/2012"
      },
      {
        "studyid": "TEST-STUDY",
        "usubjid": "08-016",
        "vstestcd": "SYSBP",
        "vsorres": "",
        "vsdtc": "19/06/2012"
      },
      {
        "studyid": "TEST-STUDY",
        "usubjid": "04-041",
        "vstestcd": "SYSBP",
        "vsorres": "112",
        "vsdtc": "21/06/2012"
      },
      {
        "studyid": "TEST-STUDY",
        "usubjid": "10-005",
        "vstestcd": "SYSBP",
        "vsorres": "144",
        "vsdtc": "14/06/2012"
      },
      {
        "studyid": "TEST-STUDY",
        "usubjid": "10-007",
        "vstestcd": "SYSBP",
        "vsorres": "126",
        "vsdtc": "20/06/2012"
      },
      {
        "studyid": "TEST-STUDY",
        "usubjid": "10-008",
        "vstestcd": "SYSBP",
        "vsorres": "152",
        "vsdtc": "21/06/2012"
      },
      {
        "studyid": "TEST-STUDY",
        "usubjid": "04-042",
        "vstestcd": "SYSBP",
        "vsorres": "118",
        "vsdtc": "22/06/2012"
      },
      {
        "studyid": "TEST-STUDY",
        "usubjid": "03-015",
        "vstestcd": "SYSBP",
        "vsorres": "131",
        "vsdtc": "22/06/2012"
      },
      {
        "studyid": "TEST-STUDY",
        "usubjid": "03-016",
        "vstestcd": "SYSBP",
        "vsorres": "",
        "vsdtc": "20/09/2012"
      },
      {
        "studyid": "TEST-STUDY",
        "usubjid": "01-031",
        "vstestcd": "SYSBP",
        "vsorres": "135",
        "vsdtc": "25/06/2012"
      },
      {
        "studyid": "TEST-STUDY",
        "usubjid": "13-026",
        "vstestcd": "SYSBP",
        "vsorres": "125",
        "vsdtc": "04/07/2012"
      },
      {
        "studyid": "TEST-STUDY",
        "usubjid": "09-019",
        "vstestcd": "SYSBP",
        "vsorres": "",
        "vsdtc": "18/06/2012"
      },
      {
        "studyid": "TEST-STUDY",
        "usubjid": "13-027",
        "vstestcd": "SYSBP",
        "vsorres": "120",
        "vsdtc": "02/07/2012"
      },
      {
        "studyid": "TEST-STUDY",
        "usubjid": "04-043",
        "vstestcd": "SYSBP",
        "vsorres": "",
        "vsdtc": "28/06/2012"
      },
      {
        "studyid": "TEST-STUDY",
        "usubjid": "06-009",
        "vstestcd": "SYSBP",
        "vsorres": "",
        "vsdtc": "28/06/2012"
      },
      {
        "studyid": "TEST-STUDY",
        "usubjid": "05-031",
        "vstestcd": "SYSBP",
        "vsorres": "110",
        "vsdtc": "06/07/2012"
      },
      {
        "studyid": "TEST-STUDY",
        "usubjid": "05-032",
        "vstestcd": "SYSBP",
        "vsorres": "120",
        "vsdtc": "02/07/2012"
      },
      {
        "studyid": "TEST-STUDY",
        "usubjid": "01-032",
        "vstestcd": "SYSBP",
        "vsorres": "179",
        "vsdtc": "02/07/2012"
      },
      {
        "studyid": "TEST-STUDY",
        "usubjid": "01-033",
        "vstestcd": "SYSBP",
        "vsorres": "114",
        "vsdtc": "09/07/2012"
      },
      {
        "studyid": "TEST-STUDY",
        "usubjid": "10-009",
        "vstestcd": "SYSBP",
        "vsorres": "118",
        "vsdtc": "28/06/2012"
      },
      {
        "studyid": "TEST-STUDY",
        "usubjid": "10-010",
        "vstestcd": "SYSBP",
        "vsorres": "113",
        "vsdtc": "04/07/2012"
      },
      {
        "studyid": "TEST-STUDY",
        "usubjid": "02-058",
        "vstestcd": "SYSBP",
        "vsorres": "",
        "vsdtc": "05/07/2012"
      },
      {
        "studyid": "TEST-STUDY",
        "usubjid": "14-017",
        "vstestcd": "SYSBP",
        "vsorres": "137",
        "vsdtc": "17/08/2012"
      },
      {
        "studyid": "TEST-STUDY",
        "usubjid": "02-059",
        "vstestcd": "SYSBP",
        "vsorres": "",
        "vsdtc": "10/07/2012"
      },
      {
        "studyid": "TEST-STUDY",
        "usubjid": "04-044",
        "vstestcd": "SYSBP",
        "vsorres": "115",
        "vsdtc": "10/07/2012"
      },
      {
        "studyid": "TEST-STUDY",
        "usubjid": "10-011",
        "vstestcd": "SYSBP",
        "vsorres": "98",
        "vsdtc": "09/07/2012"
      },
      {
        "studyid": "TEST-STUDY",
        "usubjid": "08-017",
        "vstestcd": "SYSBP",
        "vsorres": "",
        "vsdtc": "10/07/2012"
      },
      {
        "studyid": "TEST-STUDY",
        "usubjid": "02-061",
        "vstestcd": "SYSBP",
        "vsorres": "",
        "vsdtc": "11/07/2012"
      },
      {
        "studyid": "TEST-STUDY",
        "usubjid": "11-024",
        "vstestcd": "SYSBP",
        "vsorres": "136",
        "vsdtc": "17/07/2012"
      },
      {
        "studyid": "TEST-STUDY",
        "usubjid": "04-045",
        "vstestcd": "SYSBP",
        "vsorres": "146",
        "vsdtc": "13/07/2012"
      },
      {
        "studyid": "TEST-STUDY",
        "usubjid": "02-062",
        "vstestcd": "SYSBP",
        "vsorres": "",
        "vsdtc": "16/07/2012"
      },
      {
        "studyid": "TEST-STUDY",
        "usubjid": "01-035",
        "vstestcd": "SYSBP",
        "vsorres": "163",
        "vsdtc": "17/07/2012"
      },
      {
        "studyid": "TEST-STUDY",
        "usubjid": "04-046",
        "vstestcd": "SYSBP",
        "vsorres": "",
        "vsdtc": "17/07/2012"
      },
      {
        "studyid": "TEST-STUDY",
        "usubjid": "14-018",
        "vstestcd": "SYSBP",
        "vsorres": "133",
        "vsdtc": "30/07/2012"
      },
      {
        "studyid": "TEST-STUDY",
        "usubjid": "02-063",
        "vstestcd": "SYSBP",
        "vsorres": "",
        "vsdtc": "18/07/2012"
      },
      {
        "studyid": "TEST-STUDY",
        "usubjid": "02-064",
        "vstestcd": "SYSBP",
        "vsorres": "125",
        "vsdtc": "20/03/2013"
      },
      {
        "studyid": "TEST-STUDY",
        "usubjid": "03-017",
        "vstestcd": "SYSBP",
        "vsorres": "134",
        "vsdtc": "19/07/2012"
      },
      {
        "studyid": "TEST-STUDY",
        "usubjid": "14-019",
        "vstestcd": "SYSBP",
        "vsorres": "126",
        "vsdtc": "06/08/2012"
      },
      {
        "studyid": "TEST-STUDY",
        "usubjid": "10-012",
        "vstestcd": "SYSBP",
        "vsorres": "154",
        "vsdtc": "18/07/2012"
      },
      {
        "studyid": "TEST-STUDY",
        "usubjid": "10-013",
        "vstestcd": "SYSBP",
        "vsorres": "114",
        "vsdtc": "19/07/2012"
      },
      {
        "studyid": "TEST-STUDY",
        "usubjid": "02-065",
        "vstestcd": "SYSBP",
        "vsorres": "",
        "vsdtc": "24/07/2012"
      },
      {
        "studyid": "TEST-STUDY",
        "usubjid": "04-047",
        "vstestcd": "SYSBP",
        "vsorres": "122",
        "vsdtc": "20/07/2012"
      },
      {
        "studyid": "TEST-STUDY",
        "usubjid": "01-036",
        "vstestcd": "SYSBP",
        "vsorres": "150",
        "vsdtc": "23/07/2012"
      },
      {
        "studyid": "TEST-STUDY",
        "usubjid": "03-018",
        "vstestcd": "SYSBP",
        "vsorres": "98",
        "vsdtc": "23/07/2012"
      },
      {
        "studyid": "TEST-STUDY",
        "usubjid": "04-048",
        "vstestcd": "SYSBP",
        "vsorres": "119",
        "vsdtc": "24/07/2012"
      },
      {
        "studyid": "TEST-STUDY",
        "usubjid": "14-020",
        "vstestcd": "SYSBP",
        "vsorres": "118",
        "vsdtc": "20/08/2012"
      },
      {
        "studyid": "TEST-STUDY",
        "usubjid": "02-067",
        "vstestcd": "SYSBP",
        "vsorres": "",
        "vsdtc": "25/07/2012"
      },
      {
        "studyid": "TEST-STUDY",
        "usubjid": "02-068",
        "vstestcd": "SYSBP",
        "vsorres": "",
        "vsdtc": "25/07/2012"
      },
      {
        "studyid": "TEST-STUDY",
        "usubjid": "03-019",
        "vstestcd": "SYSBP",
        "vsorres": "",
        "vsdtc": "25/07/2012"
      },
      {
        "studyid": "TEST-STUDY",
        "usubjid": "04-049",
        "vstestcd": "SYSBP",
        "vsorres": "121",
        "vsdtc": "26/07/2012"
      },
      {
        "studyid": "TEST-STUDY",
        "usubjid": "04-050",
        "vstestcd": "SYSBP",
        "vsorres": "140",
        "vsdtc": "26/07/2012"
      },
      {
        "studyid": "TEST-STUDY",
        "usubjid": "01-037",
        "vstestcd": "SYSBP",
        "vsorres": "",
        "vsdtc": ""
      },
      {
        "studyid": "TEST-STUDY",
        "usubjid": "02-069",
        "vstestcd": "SYSBP",
        "vsorres": "115",
        "vsdtc": "30/07/2012"
      },
      {
        "studyid": "TEST-STUDY",
        "usubjid": "04-051",
        "vstestcd": "SYSBP",
        "vsorres": "151",
        "vsdtc": "31/07/2012"
      },
      {
        "studyid": "TEST-STUDY",
        "usubjid": "02-070",
        "vstestcd": "SYSBP",
        "vsorres": "",
        "vsdtc": "09/08/2012"
      },
      {
        "studyid": "TEST-STUDY",
        "usubjid": "02-071",
        "vstestcd": "SYSBP",
        "vsorres": "",
        "vsdtc": "02/08/2012"
      },
      {
        "studyid": "TEST-STUDY",
        "usubjid": "13-028",
        "vstestcd": "SYSBP",
        "vsorres": "100",
        "vsdtc": "02/08/2012"
      },
      {
        "studyid": "TEST-STUDY",
        "usubjid": "04-052",
        "vstestcd": "SYSBP",
        "vsorres": "",
        "vsdtc": "07/08/2012"
      },
      {
        "studyid": "TEST-STUDY",
        "usubjid": "10-014",
        "vstestcd": "SYSBP",
        "vsorres": "118",
        "vsdtc": "03/08/2012"
      },
      {
        "studyid": "TEST-STUDY",
        "usubjid": "10-015",
        "vstestcd": "SYSBP",
        "vsorres": "163",
        "vsdtc": "03/09/2012"
      },
      {
        "studyid": "TEST-STUDY",
        "usubjid": "02-073",
        "vstestcd": "SYSBP",
        "vsorres": "",
        "vsdtc": "08/08/2012"
      },
      {
        "studyid": "TEST-STUDY",
        "usubjid": "03-020",
        "vstestcd": "SYSBP",
        "vsorres": "119",
        "vsdtc": "09/08/2012"
      },
      {
        "studyid": "TEST-STUDY",
        "usubjid": "14-022",
        "vstestcd": "SYSBP",
        "vsorres": "121",
        "vsdtc": "11/09/2012"
      },
      {
        "studyid": "TEST-STUDY",
        "usubjid": "04-053",
        "vstestcd": "SYSBP",
        "vsorres": "",
        "vsdtc": "10/08/2012"
      },
      {
        "studyid": "TEST-STUDY",
        "usubjid": "04-054",
        "vstestcd": "SYSBP",
        "vsorres": "124",
        "vsdtc": "10/08/2012"
      },
      {
        "studyid": "TEST-STUDY",
        "usubjid": "02-074",
        "vstestcd": "SYSBP",
        "vsorres": "",
        "vsdtc": "13/08/2012"
      },
      {
        "studyid": "TEST-STUDY",
        "usubjid": "04-055",
        "vstestcd": "SYSBP",
        "vsorres": "",
        "vsdtc": "14/08/2012"
      },
      {
        "studyid": "TEST-STUDY",
        "usubjid": "14-023",
        "vstestcd": "SYSBP",
        "vsorres": "133",
        "vsdtc": "10/09/2012"
      },
      {
        "studyid": "TEST-STUDY",
        "usubjid": "02-076",
        "vstestcd": "SYSBP",
        "vsorres": "",
        "vsdtc": ""
      },
      {
        "studyid": "TEST-STUDY",
        "usubjid": "02-077",
        "vstestcd": "SYSBP",
        "vsorres": "122",
        "vsdtc": "08/01/2013"
      },
      {
        "studyid": "TEST-STUDY",
        "usubjid": "04-056",
        "vstestcd": "SYSBP",
        "vsorres": "115",
        "vsdtc": "16/08/2012"
      },
      {
        "studyid": "TEST-STUDY",
        "usubjid": "04-057",
        "vstestcd": "SYSBP",
        "vsorres": "149",
        "vsdtc": "17/08/2012"
      },
      {
        "studyid": "TEST-STUDY",
        "usubjid": "04-058",
        "vstestcd": "SYSBP",
        "vsorres": "",
        "vsdtc": "17/08/2012"
      },
      {
        "studyid": "TEST-STUDY",
        "usubjid": "02-078",
        "vstestcd": "SYSBP",
        "vsorres": "",
        "vsdtc": "23/08/2012"
      },
      {
        "studyid": "TEST-STUDY",
        "usubjid": "04-059",
        "vstestcd": "SYSBP",
        "vsorres": "109",
        "vsdtc": "21/08/2012"
      },
      {
        "studyid": "TEST-STUDY",
        "usubjid": "03-023",
        "vstestcd": "SYSBP",
        "vsorres": "138",
        "vsdtc": "05/09/2012"
      },
      {
        "studyid": "TEST-STUDY",
        "usubjid": "03-024",
        "vstestcd": "SYSBP",
        "vsorres": "",
        "vsdtc": "23/08/2012"
      },
      {
        "studyid": "TEST-STUDY",
        "usubjid": "04-060",
        "vstestcd": "SYSBP",
        "vsorres": "137",
        "vsdtc": "23/08/2012"
      },
      {
        "studyid": "TEST-STUDY",
        "usubjid": "08-018",
        "vstestcd": "SYSBP",
        "vsorres": "117",
        "vsdtc": "28/08/2012"
      },
      {
        "studyid": "TEST-STUDY",
        "usubjid": "10-016",
        "vstestcd": "SYSBP",
        "vsorres": "117",
        "vsdtc": "27/08/2012"
      },
      {
        "studyid": "TEST-STUDY",
        "usubjid": "06-010",
        "vstestcd": "SYSBP",
        "vsorres": "",
        "vsdtc": "28/08/2012"
      },
      {
        "studyid": "TEST-STUDY",
        "usubjid": "02-079",
        "vstestcd": "SYSBP",
        "vsorres": "",
        "vsdtc": "29/08/2012"
      },
      {
        "studyid": "TEST-STUDY",
        "usubjid": "03-026",
        "vstestcd": "SYSBP",
        "vsorres": "",
        "vsdtc": "29/08/2012"
      },
      {
        "studyid": "TEST-STUDY",
        "usubjid": "06-011",
        "vstestcd": "SYSBP",
        "vsorres": "",
        "vsdtc": "30/08/2012"
      },
      {
        "studyid": "TEST-STUDY",
        "usubjid": "04-061",
        "vstestcd": "SYSBP",
        "vsorres": "116",
        "vsdtc": "31/08/2012"
      },
      {
        "studyid": "TEST-STUDY",
        "usubjid": "14-024",
        "vstestcd": "SYSBP",
        "vsorres": "146",
        "vsdtc": "14/09/2012"
      },
      {
        "studyid": "TEST-STUDY",
        "usubjid": "05-033",
        "vstestcd": "SYSBP",
        "vsorres": "",
        "vsdtc": "03/09/2012"
      },
      {
        "studyid": "TEST-STUDY",
        "usubjid": "14-025",
        "vstestcd": "SYSBP",
        "vsorres": "110",
        "vsdtc": "01/10/2012"
      },
      {
        "studyid": "TEST-STUDY",
        "usubjid": "06-012",
        "vstestcd": "SYSBP",
        "vsorres": "",
        "vsdtc": "03/09/2012"
      },
      {
        "studyid": "TEST-STUDY",
        "usubjid": "06-013",
        "vstestcd": "SYSBP",
        "vsorres": "",
        "vsdtc": "04/09/2012"
      },
      {
        "studyid": "TEST-STUDY",
        "usubjid": "09-020",
        "vstestcd": "SYSBP",
        "vsorres": "",
        "vsdtc": "10/09/2012"
      },
      {
        "studyid": "TEST-STUDY",
        "usubjid": "04-062",
        "vstestcd": "SYSBP",
        "vsorres": "124",
        "vsdtc": "07/09/2012"
      },
      {
        "studyid": "TEST-STUDY",
        "usubjid": "04-063",
        "vstestcd": "SYSBP",
        "vsorres": "109",
        "vsdtc": "11/09/2012"
      },
      {
        "studyid": "TEST-STUDY",
        "usubjid": "04-064",
        "vstestcd": "SYSBP",
        "vsorres": "",
        "vsdtc": "11/09/2012"
      },
      {
        "studyid": "TEST-STUDY",
        "usubjid": "06-014",
        "vstestcd": "SYSBP",
        "vsorres": "",
        "vsdtc": "11/09/2012"
      },
      {
        "studyid": "TEST-STUDY",
        "usubjid": "02-080",
        "vstestcd": "SYSBP",
        "vsorres": "",
        "vsdtc": "12/09/2012"
      },
      {
        "studyid": "TEST-STUDY",
        "usubjid": "02-081",
        "vstestcd": "SYSBP",
        "vsorres": "",
        "vsdtc": "12/09/2012"
      },
      {
        "studyid": "TEST-STUDY",
        "usubjid": "04-065",
        "vstestcd": "SYSBP",
        "vsorres": "131",
        "vsdtc": "13/09/2012"
      },
      {
        "studyid": "TEST-STUDY",
        "usubjid": "04-066",
        "vstestcd": "SYSBP",
        "vsorres": "",
        "vsdtc": "13/09/2012"
      },
      {
        "studyid": "TEST-STUDY",
        "usubjid": "02-082",
        "vstestcd": "SYSBP",
        "vsorres": "",
        "vsdtc": "13/09/2012"
      },
      {
        "studyid": "TEST-STUDY",
        "usubjid": "04-067",
        "vstestcd": "SYSBP",
        "vsorres": "149",
        "vsdtc": "14/09/2012"
      },
      {
        "studyid": "TEST-STUDY",
        "usubjid": "03-029",
        "vstestcd": "SYSBP",
        "vsorres": "",
        "vsdtc": "17/09/2012"
      },
      {
        "studyid": "TEST-STUDY",
        "usubjid": "02-083",
        "vstestcd": "SYSBP",
        "vsorres": "135",
        "vsdtc": "21/03/2013"
      },
      {
        "studyid": "TEST-STUDY",
        "usubjid": "06-015",
        "vstestcd": "SYSBP",
        "vsorres": "",
        "vsdtc": "18/09/2012"
      },
      {
        "studyid": "TEST-STUDY",
        "usubjid": "03-030",
        "vstestcd": "SYSBP",
        "vsorres": "",
        "vsdtc": "18/09/2012"
      },
      {
        "studyid": "TEST-STUDY",
        "usubjid": "02-084",
        "vstestcd": "SYSBP",
        "vsorres": "",
        "vsdtc": "19/09/2012"
      },
      {
        "studyid": "TEST-STUDY",
        "usubjid": "03-031",
        "vstestcd": "SYSBP",
        "vsorres": "",
        "vsdtc": "19/09/2012"
      },
      {
        "studyid": "TEST-STUDY",
        "usubjid": "15-003",
        "vstestcd": "SYSBP",
        "vsorres": "115",
        "vsdtc": "19/09/2012"
      },
      {
        "studyid": "TEST-STUDY",
        "usubjid": "03-032",
        "vstestcd": "SYSBP",
        "vsorres": "111",
        "vsdtc": "25/10/2012"
      },
      {
        "studyid": "TEST-STUDY",
        "usubjid": "10-017",
        "vstestcd": "SYSBP",
        "vsorres": "125",
        "vsdtc": "17/09/2012"
      },
      {
        "studyid": "TEST-STUDY",
        "usubjid": "01-038",
        "vstestcd": "SYSBP",
        "vsorres": "131",
        "vsdtc": "21/09/2012"
      },
      {
        "studyid": "TEST-STUDY",
        "usubjid": "04-068",
        "vstestcd": "SYSBP",
        "vsorres": "122",
        "vsdtc": "21/09/2012"
      },
      {
        "studyid": "TEST-STUDY",
        "usubjid": "02-086",
        "vstestcd": "SYSBP",
        "vsorres": "",
        "vsdtc": "21/09/2012"
      },
      {
        "studyid": "TEST-STUDY",
        "usubjid": "09-021",
        "vstestcd": "SYSBP",
        "vsorres": "",
        "vsdtc": "24/09/2012"
      },
      {
        "studyid": "TEST-STUDY",
        "usubjid": "15-004",
        "vstestcd": "SYSBP",
        "vsorres": "113",
        "vsdtc": "04/10/2012"
      },
      {
        "studyid": "TEST-STUDY",
        "usubjid": "14-027",
        "vstestcd": "SYSBP",
        "vsorres": "158",
        "vsdtc": "12/10/2012"
      },
      {
        "studyid": "TEST-STUDY",
        "usubjid": "13-029",
        "vstestcd": "SYSBP",
        "vsorres": "120",
        "vsdtc": "08/10/2012"
      },
      {
        "studyid": "TEST-STUDY",
        "usubjid": "04-069",
        "vstestcd": "SYSBP",
        "vsorres": "139",
        "vsdtc": "25/09/2012"
      },
      {
        "studyid": "TEST-STUDY",
        "usubjid": "04-070",
        "vstestcd": "SYSBP",
        "vsorres": "",
        "vsdtc": "25/09/2012"
      },
      {
        "studyid": "TEST-STUDY",
        "usubjid": "09-022",
        "vstestcd": "SYSBP",
        "vsorres": "",
        "vsdtc": "01/10/2012"
      },
      {
        "studyid": "TEST-STUDY",
        "usubjid": "02-087",
        "vstestcd": "SYSBP",
        "vsorres": "",
        "vsdtc": "25/09/2012"
      },
      {
        "studyid": "TEST-STUDY",
        "usubjid": "02-088",
        "vstestcd": "SYSBP",
        "vsorres": "",
        "vsdtc": "10/10/2012"
      },
      {
        "studyid": "TEST-STUDY",
        "usubjid": "14-028",
        "vstestcd": "SYSBP",
        "vsorres": "138",
        "vsdtc": "10/12/2012"
      },
      {
        "studyid": "TEST-STUDY",
        "usubjid": "04-071",
        "vstestcd": "SYSBP",
        "vsorres": "",
        "vsdtc": "27/09/2012"
      },
      {
        "studyid": "TEST-STUDY",
        "usubjid": "04-072",
        "vstestcd": "SYSBP",
        "vsorres": "137",
        "vsdtc": "27/09/2012"
      },
      {
        "studyid": "TEST-STUDY",
        "usubjid": "02-089",
        "vstestcd": "SYSBP",
        "vsorres": "",
        "vsdtc": "27/09/2012"
      },
      {
        "studyid": "TEST-STUDY",
        "usubjid": "03-033",
        "vstestcd": "SYSBP",
        "vsorres": "",
        "vsdtc": "27/09/2012"
      },
      {
        "studyid": "TEST-STUDY",
        "usubjid": "05-034",
        "vstestcd": "SYSBP",
        "vsorres": "",
        "vsdtc": ""
      },
      {
        "studyid": "TEST-STUDY",
        "usubjid": "05-035",
        "vstestcd": "SYSBP",
        "vsorres": "100",
        "vsdtc": "01/10/2012"
      },
      {
        "studyid": "TEST-STUDY",
        "usubjid": "02-090",
        "vstestcd": "SYSBP",
        "vsorres": "",
        "vsdtc": "26/11/2012"
      },
      {
        "studyid": "TEST-STUDY",
        "usubjid": "14-029",
        "vstestcd": "SYSBP",
        "vsorres": "133",
        "vsdtc": "16/10/2012"
      },
      {
        "studyid": "TEST-STUDY",
        "usubjid": "15-005",
        "vstestcd": "SYSBP",
        "vsorres": "90",
        "vsdtc": "24/10/2012"
      },
      {
        "studyid": "TEST-STUDY",
        "usubjid": "09-023",
        "vstestcd": "SYSBP",
        "vsorres": "",
        "vsdtc": "08/10/2012"
      },
      {
        "studyid": "TEST-STUDY",
        "usubjid": "14-030",
        "vstestcd": "SYSBP",
        "vsorres": "164",
        "vsdtc": "29/10/2012"
      },
      {
        "studyid": "TEST-STUDY",
        "usubjid": "04-073",
        "vstestcd": "SYSBP",
        "vsorres": "144",
        "vsdtc": "04/10/2012"
      },
      {
        "studyid": "TEST-STUDY",
        "usubjid": "05-036",
        "vstestcd": "SYSBP",
        "vsorres": "",
        "vsdtc": "05/10/2012"
      },
      {
        "studyid": "TEST-STUDY",
        "usubjid": "05-037",
        "vstestcd": "SYSBP",
        "vsorres": "100",
        "vsdtc": "05/10/2012"
      },
      {
        "studyid": "TEST-STUDY",
        "usubjid": "04-074",
        "vstestcd": "SYSBP",
        "vsorres": "119",
        "vsdtc": "05/10/2012"
      },
      {
        "studyid": "TEST-STUDY",
        "usubjid": "05-038",
        "vstestcd": "SYSBP",
        "vsorres": "100",
        "vsdtc": "08/10/2012"
      },
      {
        "studyid": "TEST-STUDY",
        "usubjid": "10-018",
        "vstestcd": "SYSBP",
        "vsorres": "139",
        "vsdtc": "02/10/2012"
      },
      {
        "studyid": "TEST-STUDY",
        "usubjid": "02-091",
        "vstestcd": "SYSBP",
        "vsorres": "",
        "vsdtc": "30/10/2012"
      },
      {
        "studyid": "TEST-STUDY",
        "usubjid": "14-031",
        "vstestcd": "SYSBP",
        "vsorres": "168",
        "vsdtc": "06/11/2012"
      },
      {
        "studyid": "TEST-STUDY",
        "usubjid": "02-092",
        "vstestcd": "SYSBP",
        "vsorres": "",
        "vsdtc": "09/10/2012"
      },
      {
        "studyid": "TEST-STUDY",
        "usubjid": "03-034",
        "vstestcd": "SYSBP",
        "vsorres": "",
        "vsdtc": "10/10/2012"
      },
      {
        "studyid": "TEST-STUDY",
        "usubjid": "04-075",
        "vstestcd": "SYSBP",
        "vsorres": "",
        "vsdtc": "11/10/2012"
      },
      {
        "studyid": "TEST-STUDY",
        "usubjid": "10-019",
        "vstestcd": "SYSBP",
        "vsorres": "174",
        "vsdtc": "09/10/2012"
      },
      {
        "studyid": "TEST-STUDY",
        "usubjid": "05-039",
        "vstestcd": "SYSBP",
        "vsorres": "130",
        "vsdtc": "11/10/2012"
      },
      {
        "studyid": "TEST-STUDY",
        "usubjid": "08-019",
        "vstestcd": "SYSBP",
        "vsorres": "",
        "vsdtc": "13/10/2012"
      },
      {
        "studyid": "TEST-STUDY",
        "usubjid": "05-040",
        "vstestcd": "SYSBP",
        "vsorres": "130",
        "vsdtc": "15/10/2012"
      },
      {
        "studyid": "TEST-STUDY",
        "usubjid": "10-020",
        "vstestcd": "SYSBP",
        "vsorres": "191",
        "vsdtc": "11/10/2012"
      },
      {
        "studyid": "TEST-STUDY",
        "usubjid": "03-035",
        "vstestcd": "SYSBP",
        "vsorres": "166",
        "vsdtc": "29/10/2012"
      },
      {
        "studyid": "TEST-STUDY",
        "usubjid": "07-029",
        "vstestcd": "SYSBP",
        "vsorres": "140",
        "vsdtc": "17/10/2012"
      },
      {
        "studyid": "TEST-STUDY",
        "usubjid": "02-096",
        "vstestcd": "SYSBP",
        "vsorres": "",
        "vsdtc": ""
      },
      {
        "studyid": "TEST-STUDY",
        "usubjid": "04-076",
        "vstestcd": "SYSBP",
        "vsorres": "129",
        "vsdtc": "18/10/2012"
      },
      {
        "studyid": "TEST-STUDY",
        "usubjid": "03-036",
        "vstestcd": "SYSBP",
        "vsorres": "161",
        "vsdtc": "18/10/2012"
      },
      {
        "studyid": "TEST-STUDY",
        "usubjid": "04-077",
        "vstestcd": "SYSBP",
        "vsorres": "107",
        "vsdtc": "19/10/2012"
      },
      {
        "studyid": "TEST-STUDY",
        "usubjid": "10-021",
        "vstestcd": "SYSBP",
        "vsorres": "124",
        "vsdtc": "19/10/2012"
      },
      {
        "studyid": "TEST-STUDY",
        "usubjid": "03-037",
        "vstestcd": "SYSBP",
        "vsorres": "",
        "vsdtc": "19/10/2012"
      },
      {
        "studyid": "TEST-STUDY",
        "usubjid": "04-078",
        "vstestcd": "SYSBP",
        "vsorres": "",
        "vsdtc": "23/10/2012"
      },
      {
        "studyid": "TEST-STUDY",
        "usubjid": "10-022",
        "vstestcd": "SYSBP",
        "vsorres": "150",
        "vsdtc": "22/10/2012"
      },
      {
        "studyid": "TEST-STUDY",
        "usubjid": "02-098",
        "vstestcd": "SYSBP",
        "vsorres": "",
        "vsdtc": "24/10/2012"
      },
      {
        "studyid": "TEST-STUDY",
        "usubjid": "02-099",
        "vstestcd": "SYSBP",
        "vsorres": "",
        "vsdtc": "24/10/2012"
      },
      {
        "studyid": "TEST-STUDY",
        "usubjid": "10-023",
        "vstestcd": "SYSBP",
        "vsorres": "113",
        "vsdtc": "23/10/2012"
      },
      {
        "studyid": "TEST-STUDY",
        "usubjid": "10-024",
        "vstestcd": "SYSBP",
        "vsorres": "113",
        "vsdtc": "24/10/2012"
      },
      {
        "studyid": "TEST-STUDY",
        "usubjid": "04-079",
        "vstestcd": "SYSBP",
        "vsorres": "132",
        "vsdtc": "25/10/2012"
      },
      {
        "studyid": "TEST-STUDY",
        "usubjid": "02-100",
        "vstestcd": "SYSBP",
        "vsorres": "",
        "vsdtc": "25/10/2012"
      },
      {
        "studyid": "TEST-STUDY",
        "usubjid": "10-025",
        "vstestcd": "SYSBP",
        "vsorres": "110",
        "vsdtc": "25/10/2012"
      },
      {
        "studyid": "TEST-STUDY",
        "usubjid": "05-041",
        "vstestcd": "SYSBP",
        "vsorres": "",
        "vsdtc": "26/10/2012"
      },
      {
        "studyid": "TEST-STUDY",
        "usubjid": "04-080",
        "vstestcd": "SYSBP",
        "vsorres": "121",
        "vsdtc": "26/10/2012"
      },
      {
        "studyid": "TEST-STUDY",
        "usubjid": "04-081",
        "vstestcd": "SYSBP",
        "vsorres": "130",
        "vsdtc": "26/10/2012"
      },
      {
        "studyid": "TEST-STUDY",
        "usubjid": "05-042",
        "vstestcd": "SYSBP",
        "vsorres": "",
        "vsdtc": "29/10/2012"
      },
      {
        "studyid": "TEST-STUDY",
        "usubjid": "02-101",
        "vstestcd": "SYSBP",
        "vsorres": "",
        "vsdtc": "29/10/2012"
      },
      {
        "studyid": "TEST-STUDY",
        "usubjid": "04-082",
        "vstestcd": "SYSBP",
        "vsorres": "137",
        "vsdtc": "30/10/2012"
      },
      {
        "studyid": "TEST-STUDY",
        "usubjid": "03-040",
        "vstestcd": "SYSBP",
        "vsorres": "153",
        "vsdtc": "30/10/2012"
      },
      {
        "studyid": "TEST-STUDY",
        "usubjid": "02-102",
        "vstestcd": "SYSBP",
        "vsorres": "",
        "vsdtc": "31/10/2012"
      },
      {
        "studyid": "TEST-STUDY",
        "usubjid": "14-033",
        "vstestcd": "SYSBP",
        "vsorres": "127",
        "vsdtc": "21/02/2013"
      },
      {
        "studyid": "TEST-STUDY",
        "usubjid": "03-041",
        "vstestcd": "SYSBP",
        "vsorres": "",
        "vsdtc": "01/11/2012"
      },
      {
        "studyid": "TEST-STUDY",
        "usubjid": "03-042",
        "vstestcd": "SYSBP",
        "vsorres": "",
        "vsdtc": "02/11/2012"
      },
      {
        "studyid": "TEST-STUDY",
        "usubjid": "02-103",
        "vstestcd": "SYSBP",
        "vsorres": "",
        "vsdtc": "05/11/2012"
      },
      {
        "studyid": "TEST-STUDY",
        "usubjid": "02-104",
        "vstestcd": "SYSBP",
        "vsorres": "",
        "vsdtc": "05/11/2012"
      },
      {
        "studyid": "TEST-STUDY",
        "usubjid": "14-034",
        "vstestcd": "SYSBP",
        "vsorres": "117",
        "vsdtc": "03/04/2013"
      },
      {
        "studyid": "TEST-STUDY",
        "usubjid": "02-105",
        "vstestcd": "SYSBP",
        "vsorres": "",
        "vsdtc": "12/11/2012"
      },
      {
        "studyid": "TEST-STUDY",
        "usubjid": "03-043",
        "vstestcd": "SYSBP",
        "vsorres": "",
        "vsdtc": "19/11/2012"
      },
      {
        "studyid": "TEST-STUDY",
        "usubjid": "15-006",
        "vstestcd": "SYSBP",
        "vsorres": "121",
        "vsdtc": "06/11/2012"
      },
      {
        "studyid": "TEST-STUDY",
        "usubjid": "02-106",
        "vstestcd": "SYSBP",
        "vsorres": "",
        "vsdtc": "06/11/2012"
      },
      {
        "studyid": "TEST-STUDY",
        "usubjid": "04-083",
        "vstestcd": "SYSBP",
        "vsorres": "131",
        "vsdtc": "08/11/2012"
      },
      {
        "studyid": "TEST-STUDY",
        "usubjid": "04-084",
        "vstestcd": "SYSBP",
        "vsorres": "132",
        "vsdtc": "08/11/2012"
      },
      {
        "studyid": "TEST-STUDY",
        "usubjid": "02-107",
        "vstestcd": "SYSBP",
        "vsorres": "",
        "vsdtc": "16/11/2012"
      },
      {
        "studyid": "TEST-STUDY",
        "usubjid": "02-108",
        "vstestcd": "SYSBP",
        "vsorres": "",
        "vsdtc": "09/11/2012"
      },
      {
        "studyid": "TEST-STUDY",
        "usubjid": "01-039",
        "vstestcd": "SYSBP",
        "vsorres": "132",
        "vsdtc": "12/11/2012"
      },
      {
        "studyid": "TEST-STUDY",
        "usubjid": "05-043",
        "vstestcd": "SYSBP",
        "vsorres": "120",
        "vsdtc": "16/11/2012"
      },
      {
        "studyid": "TEST-STUDY",
        "usubjid": "14-035",
        "vstestcd": "SYSBP",
        "vsorres": "117",
        "vsdtc": "13/12/2012"
      },
      {
        "studyid": "TEST-STUDY",
        "usubjid": "02-109",
        "vstestcd": "SYSBP",
        "vsorres": "",
        "vsdtc": "12/11/2012"
      },
      {
        "studyid": "TEST-STUDY",
        "usubjid": "14-036",
        "vstestcd": "SYSBP",
        "vsorres": "155",
        "vsdtc": "11/12/2012"
      },
      {
        "studyid": "TEST-STUDY",
        "usubjid": "09-024",
        "vstestcd": "SYSBP",
        "vsorres": "",
        "vsdtc": "28/01/2013"
      },
      {
        "studyid": "TEST-STUDY",
        "usubjid": "03-046",
        "vstestcd": "SYSBP",
        "vsorres": "",
        "vsdtc": "12/11/2012"
      },
      {
        "studyid": "TEST-STUDY",
        "usubjid": "04-085",
        "vstestcd": "SYSBP",
        "vsorres": "",
        "vsdtc": "13/11/2012"
      },
      {
        "studyid": "TEST-STUDY",
        "usubjid": "10-026",
        "vstestcd": "SYSBP",
        "vsorres": "114",
        "vsdtc": "13/11/2012"
      },
      {
        "studyid": "TEST-STUDY",
        "usubjid": "06-016",
        "vstestcd": "SYSBP",
        "vsorres": "",
        "vsdtc": "13/11/2012"
      },
      {
        "studyid": "TEST-STUDY",
        "usubjid": "01-040",
        "vstestcd": "SYSBP",
        "vsorres": "112",
        "vsdtc": "14/11/2012"
      },
      {
        "studyid": "TEST-STUDY",
        "usubjid": "01-041",
        "vstestcd": "SYSBP",
        "vsorres": "115",
        "vsdtc": "15/11/2012"
      },
      {
        "studyid": "TEST-STUDY",
        "usubjid": "04-086",
        "vstestcd": "SYSBP",
        "vsorres": "127",
        "vsdtc": "15/11/2012"
      },
      {
        "studyid": "TEST-STUDY",
        "usubjid": "02-110",
        "vstestcd": "SYSBP",
        "vsorres": "",
        "vsdtc": "15/11/2012"
      },
      {
        "studyid": "TEST-STUDY",
        "usubjid": "04-087",
        "vstestcd": "SYSBP",
        "vsorres": "126",
        "vsdtc": "16/11/2012"
      },
      {
        "studyid": "TEST-STUDY",
        "usubjid": "02-111",
        "vstestcd": "SYSBP",
        "vsorres": "",
        "vsdtc": "19/11/2012"
      },
      {
        "studyid": "TEST-STUDY",
        "usubjid": "05-044",
        "vstestcd": "SYSBP",
        "vsorres": "120",
        "vsdtc": "19/11/2012"
      },
      {
        "studyid": "TEST-STUDY",
        "usubjid": "01-042",
        "vstestcd": "SYSBP",
        "vsorres": "110",
        "vsdtc": "20/11/2012"
      },
      {
        "studyid": "TEST-STUDY",
        "usubjid": "02-113",
        "vstestcd": "SYSBP",
        "vsorres": "",
        "vsdtc": "20/11/2012"
      },
      {
        "studyid": "TEST-STUDY",
        "usubjid": "02-114",
        "vstestcd": "SYSBP",
        "vsorres": "",
        "vsdtc": "27/11/2012"
      },
      {
        "studyid": "TEST-STUDY",
        "usubjid": "04-088",
        "vstestcd": "SYSBP",
        "vsorres": "156",
        "vsdtc": "22/11/2012"
      },
      {
        "studyid": "TEST-STUDY",
        "usubjid": "04-089",
        "vstestcd": "SYSBP",
        "vsorres": "",
        "vsdtc": "22/11/2012"
      },
      {
        "studyid": "TEST-STUDY",
        "usubjid": "04-090",
        "vstestcd": "SYSBP",
        "vsorres": "113",
        "vsdtc": "23/11/2012"
      },
      {
        "studyid": "TEST-STUDY",
        "usubjid": "03-049",
        "vstestcd": "SYSBP",
        "vsorres": "129",
        "vsdtc": "23/11/2012"
      },
      {
        "studyid": "TEST-STUDY",
        "usubjid": "04-091",
        "vstestcd": "SYSBP",
        "vsorres": "",
        "vsdtc": "27/11/2012"
      },
      {
        "studyid": "TEST-STUDY",
        "usubjid": "10-027",
        "vstestcd": "SYSBP",
        "vsorres": "136",
        "vsdtc": "27/11/2012"
      },
      {
        "studyid": "TEST-STUDY",
        "usubjid": "03-050",
        "vstestcd": "SYSBP",
        "vsorres": "",
        "vsdtc": "29/11/2012"
      },
      {
        "studyid": "TEST-STUDY",
        "usubjid": "02-115",
        "vstestcd": "SYSBP",
        "vsorres": "179",
        "vsdtc": "29/11/2012"
      },
      {
        "studyid": "TEST-STUDY",
        "usubjid": "04-092",
        "vstestcd": "SYSBP",
        "vsorres": "",
        "vsdtc": "29/11/2012"
      },
      {
        "studyid": "TEST-STUDY",
        "usubjid": "04-093",
        "vstestcd": "SYSBP",
        "vsorres": "132",
        "vsdtc": "29/11/2012"
      },
      {
        "studyid": "TEST-STUDY",
        "usubjid": "01-043",
        "vstestcd": "SYSBP",
        "vsorres": "116",
        "vsdtc": "30/11/2012"
      },
      {
        "studyid": "TEST-STUDY",
        "usubjid": "04-094",
        "vstestcd": "SYSBP",
        "vsorres": "115",
        "vsdtc": "30/11/2012"
      },
      {
        "studyid": "TEST-STUDY",
        "usubjid": "02-116",
        "vstestcd": "SYSBP",
        "vsorres": "",
        "vsdtc": "04/01/2013"
      },
      {
        "studyid": "TEST-STUDY",
        "usubjid": "02-117",
        "vstestcd": "SYSBP",
        "vsorres": "",
        "vsdtc": "15/01/2013"
      },
      {
        "studyid": "TEST-STUDY",
        "usubjid": "03-052",
        "vstestcd": "SYSBP",
        "vsorres": "147",
        "vsdtc": "03/12/2012"
      },
      {
        "studyid": "TEST-STUDY",
        "usubjid": "02-118",
        "vstestcd": "SYSBP",
        "vsorres": "",
        "vsdtc": "04/12/2012"
      },
      {
        "studyid": "TEST-STUDY",
        "usubjid": "14-038",
        "vstestcd": "SYSBP",
        "vsorres": "117",
        "vsdtc": "20/12/2012"
      },
      {
        "studyid": "TEST-STUDY",
        "usubjid": "03-053",
        "vstestcd": "SYSBP",
        "vsorres": "",
        "vsdtc": "04/01/2013"
      },
      {
        "studyid": "TEST-STUDY",
        "usubjid": "04-095",
        "vstestcd": "SYSBP",
        "vsorres": "139",
        "vsdtc": "06/12/2012"
      },
      {
        "studyid": "TEST-STUDY",
        "usubjid": "04-096",
        "vstestcd": "SYSBP",
        "vsorres": "",
        "vsdtc": "06/12/2012"
      },
      {
        "studyid": "TEST-STUDY",
        "usubjid": "03-054",
        "vstestcd": "SYSBP",
        "vsorres": "",
        "vsdtc": "24/01/2013"
      },
      {
        "studyid": "TEST-STUDY",
        "usubjid": "05-045",
        "vstestcd": "SYSBP",
        "vsorres": "100",
        "vsdtc": "07/12/2012"
      },
      {
        "studyid": "TEST-STUDY",
        "usubjid": "04-097",
        "vstestcd": "SYSBP",
        "vsorres": "",
        "vsdtc": "07/12/2012"
      },
      {
        "studyid": "TEST-STUDY",
        "usubjid": "02-119",
        "vstestcd": "SYSBP",
        "vsorres": "",
        "vsdtc": "10/12/2012"
      },
      {
        "studyid": "TEST-STUDY",
        "usubjid": "04-098",
        "vstestcd": "SYSBP",
        "vsorres": "",
        "vsdtc": "11/12/2012"
      },
      {
        "studyid": "TEST-STUDY",
        "usubjid": "08-020",
        "vstestcd": "SYSBP",
        "vsorres": "",
        "vsdtc": "11/12/2012"
      },
      {
        "studyid": "TEST-STUDY",
        "usubjid": "02-121",
        "vstestcd": "SYSBP",
        "vsorres": "",
        "vsdtc": "02/01/2013"
      },
      {
        "studyid": "TEST-STUDY",
        "usubjid": "03-055",
        "vstestcd": "SYSBP",
        "vsorres": "",
        "vsdtc": "12/12/2012"
      },
      {
        "studyid": "TEST-STUDY",
        "usubjid": "04-099",
        "vstestcd": "SYSBP",
        "vsorres": "",
        "vsdtc": "13/12/2012"
      },
      {
        "studyid": "TEST-STUDY",
        "usubjid": "04-100",
        "vstestcd": "SYSBP",
        "vsorres": "",
        "vsdtc": "14/12/2012"
      },
      {
        "studyid": "TEST-STUDY",
        "usubjid": "10-028",
        "vstestcd": "SYSBP",
        "vsorres": "120",
        "vsdtc": "11/12/2012"
      },
      {
        "studyid": "TEST-STUDY",
        "usubjid": "03-057",
        "vstestcd": "SYSBP",
        "vsorres": "99",
        "vsdtc": "17/12/2012"
      },
      {
        "studyid": "TEST-STUDY",
        "usubjid": "02-124",
        "vstestcd": "SYSBP",
        "vsorres": "",
        "vsdtc": "21/12/2012"
      },
      {
        "studyid": "TEST-STUDY",
        "usubjid": "01-044",
        "vstestcd": "SYSBP",
        "vsorres": "124",
        "vsdtc": "28/12/2012"
      },
      {
        "studyid": "TEST-STUDY",
        "usubjid": "02-125",
        "vstestcd": "SYSBP",
        "vsorres": "",
        "vsdtc": "02/01/2013"
      },
      {
        "studyid": "TEST-STUDY",
        "usubjid": "10-029",
        "vstestcd": "SYSBP",
        "vsorres": "118",
        "vsdtc": "03/01/2013"
      },
      {
        "studyid": "TEST-STUDY",
        "usubjid": "04-101",
        "vstestcd": "SYSBP",
        "vsorres": "",
        "vsdtc": "08/01/2013"
      },
      {
        "studyid": "TEST-STUDY",
        "usubjid": "03-059",
        "vstestcd": "SYSBP",
        "vsorres": "",
        "vsdtc": ""
      },
      {
        "studyid": "TEST-STUDY",
        "usubjid": "13-031",
        "vstestcd": "SYSBP",
        "vsorres": "144",
        "vsdtc": "14/01/2013"
      },
      {
        "studyid": "TEST-STUDY",
        "usubjid": "01-045",
        "vstestcd": "SYSBP",
        "vsorres": "118",
        "vsdtc": "11/02/2013"
      },
      {
        "studyid": "TEST-STUDY",
        "usubjid": "14-039",
        "vstestcd": "SYSBP",
        "vsorres": "131",
        "vsdtc": "07/02/2013"
      },
      {
        "studyid": "TEST-STUDY",
        "usubjid": "09-025",
        "vstestcd": "SYSBP",
        "vsorres": "120",
        "vsdtc": "05/02/2013"
      },
      {
        "studyid": "TEST-STUDY",
        "usubjid": "03-060",
        "vstestcd": "SYSBP",
        "vsorres": "",
        "vsdtc": "16/01/2013"
      },
      {
        "studyid": "TEST-STUDY",
        "usubjid": "10-030",
        "vstestcd": "SYSBP",
        "vsorres": "147",
        "vsdtc": "17/01/2013"
      },
      {
        "studyid": "TEST-STUDY",
        "usubjid": "04-102",
        "vstestcd": "SYSBP",
        "vsorres": "130",
        "vsdtc": "18/01/2013"
      },
      {
        "studyid": "TEST-STUDY",
        "usubjid": "09-026",
        "vstestcd": "SYSBP",
        "vsorres": "140",
        "vsdtc": "07/02/2013"
      },
      {
        "studyid": "TEST-STUDY",
        "usubjid": "09-027",
        "vstestcd": "SYSBP",
        "vsorres": "135",
        "vsdtc": "25/01/2013"
      },
      {
        "studyid": "TEST-STUDY",
        "usubjid": "03-061",
        "vstestcd": "SYSBP",
        "vsorres": "",
        "vsdtc": ""
      },
      {
        "studyid": "TEST-STUDY",
        "usubjid": "02-126",
        "vstestcd": "SYSBP",
        "vsorres": "",
        "vsdtc": "22/01/2013"
      },
      {
        "studyid": "TEST-STUDY",
        "usubjid": "03-063",
        "vstestcd": "SYSBP",
        "vsorres": "",
        "vsdtc": "13/02/2013"
      },
      {
        "studyid": "TEST-STUDY",
        "usubjid": "04-103",
        "vstestcd": "SYSBP",
        "vsorres": "107",
        "vsdtc": "24/01/2013"
      },
      {
        "studyid": "TEST-STUDY",
        "usubjid": "04-104",
        "vstestcd": "SYSBP",
        "vsorres": "",
        "vsdtc": "24/01/2013"
      },
      {
        "studyid": "TEST-STUDY",
        "usubjid": "10-031",
        "vstestcd": "SYSBP",
        "vsorres": "160",
        "vsdtc": "24/01/2013"
      },
      {
        "studyid": "TEST-STUDY",
        "usubjid": "12-007",
        "vstestcd": "SYSBP",
        "vsorres": "",
        "vsdtc": "29/01/2013"
      },
      {
        "studyid": "TEST-STUDY",
        "usubjid": "04-105",
        "vstestcd": "SYSBP",
        "vsorres": "",
        "vsdtc": "29/01/2013"
      },
      {
        "studyid": "TEST-STUDY",
        "usubjid": "02-127",
        "vstestcd": "SYSBP",
        "vsorres": "",
        "vsdtc": "19/04/2013"
      },
      {
        "studyid": "TEST-STUDY",
        "usubjid": "14-040",
        "vstestcd": "SYSBP",
        "vsorres": "120",
        "vsdtc": "06/02/2013"
      },
      {
        "studyid": "TEST-STUDY",
        "usubjid": "04-106",
        "vstestcd": "SYSBP",
        "vsorres": "107",
        "vsdtc": "31/01/2013"
      },
      {
        "studyid": "TEST-STUDY",
        "usubjid": "04-107",
        "vstestcd": "SYSBP",
        "vsorres": "",
        "vsdtc": "31/01/2013"
      },
      {
        "studyid": "TEST-STUDY",
        "usubjid": "14-041",
        "vstestcd": "SYSBP",
        "vsorres": "128",
        "vsdtc": "23/04/2013"
      },
      {
        "studyid": "TEST-STUDY",
        "usubjid": "04-108",
        "vstestcd": "SYSBP",
        "vsorres": "141",
        "vsdtc": "01/02/2013"
      },
      {
        "studyid": "TEST-STUDY",
        "usubjid": "04-109",
        "vstestcd": "SYSBP",
        "vsorres": "",
        "vsdtc": "05/02/2013"
      },
      {
        "studyid": "TEST-STUDY",
        "usubjid": "02-128",
        "vstestcd": "SYSBP",
        "vsorres": "",
        "vsdtc": "05/02/2013"
      },
      {
        "studyid": "TEST-STUDY",
        "usubjid": "15-007",
        "vstestcd": "SYSBP",
        "vsorres": "120",
        "vsdtc": "06/02/2013"
      },
      {
        "studyid": "TEST-STUDY",
        "usubjid": "03-065",
        "vstestcd": "SYSBP",
        "vsorres": "",
        "vsdtc": "04/03/2013"
      },
      {
        "studyid": "TEST-STUDY",
        "usubjid": "05-046",
        "vstestcd": "SYSBP",
        "vsorres": "105",
        "vsdtc": "07/02/2013"
      },
      {
        "studyid": "TEST-STUDY",
        "usubjid": "04-110",
        "vstestcd": "SYSBP",
        "vsorres": "",
        "vsdtc": "07/02/2013"
      },
      {
        "studyid": "TEST-STUDY",
        "usubjid": "04-111",
        "vstestcd": "SYSBP",
        "vsorres": "112",
        "vsdtc": "08/02/2013"
      },
      {
        "studyid": "TEST-STUDY",
        "usubjid": "03-066",
        "vstestcd": "SYSBP",
        "vsorres": "",
        "vsdtc": "11/02/2013"
      },
      {
        "studyid": "TEST-STUDY",
        "usubjid": "09-028",
        "vstestcd": "SYSBP",
        "vsorres": "130",
        "vsdtc": "11/02/2013"
      },
      {
        "studyid": "TEST-STUDY",
        "usubjid": "09-029",
        "vstestcd": "SYSBP",
        "vsorres": "130",
        "vsdtc": "20/02/2013"
      },
      {
        "studyid": "TEST-STUDY",
        "usubjid": "15-009",
        "vstestcd": "SYSBP",
        "vsorres": "108",
        "vsdtc": "14/02/2013"
      },
      {
        "studyid": "TEST-STUDY",
        "usubjid": "02-129",
        "vstestcd": "SYSBP",
        "vsorres": "170",
        "vsdtc": "16/04/2013"
      },
      {
        "studyid": "TEST-STUDY",
        "usubjid": "15-010",
        "vstestcd": "SYSBP",
        "vsorres": "83",
        "vsdtc": "20/02/2013"
      },
      {
        "studyid": "TEST-STUDY",
        "usubjid": "15-011",
        "vstestcd": "SYSBP",
        "vsorres": "105",
        "vsdtc": "27/02/2013"
      },
      {
        "studyid": "TEST-STUDY",
        "usubjid": "02-131",
        "vstestcd": "SYSBP",
        "vsorres": "",
        "vsdtc": "18/02/2013"
      },
      {
        "studyid": "TEST-STUDY",
        "usubjid": "05-047",
        "vstestcd": "SYSBP",
        "vsorres": "120",
        "vsdtc": "11/03/2013"
      },
      {
        "studyid": "TEST-STUDY",
        "usubjid": "15-012",
        "vstestcd": "SYSBP",
        "vsorres": "119",
        "vsdtc": "13/03/2013"
      },
      {
        "studyid": "TEST-STUDY",
        "usubjid": "06-017",
        "vstestcd": "SYSBP",
        "vsorres": "",
        "vsdtc": "18/02/2013"
      },
      {
        "studyid": "TEST-STUDY",
        "usubjid": "04-112",
        "vstestcd": "SYSBP",
        "vsorres": "177",
        "vsdtc": "21/02/2013"
      },
      {
        "studyid": "TEST-STUDY",
        "usubjid": "04-113",
        "vstestcd": "SYSBP",
        "vsorres": "119",
        "vsdtc": "22/02/2013"
      },
      {
        "studyid": "TEST-STUDY",
        "usubjid": "01-046",
        "vstestcd": "SYSBP",
        "vsorres": "150",
        "vsdtc": "22/03/2013"
      },
      {
        "studyid": "TEST-STUDY",
        "usubjid": "04-114",
        "vstestcd": "SYSBP",
        "vsorres": "",
        "vsdtc": "26/02/2013"
      },
      {
        "studyid": "TEST-STUDY",
        "usubjid": "15-013",
        "vstestcd": "SYSBP",
        "vsorres": "110",
        "vsdtc": "05/03/2013"
      },
      {
        "studyid": "TEST-STUDY",
        "usubjid": "02-132",
        "vstestcd": "SYSBP",
        "vsorres": "",
        "vsdtc": "27/02/2013"
      },
      {
        "studyid": "TEST-STUDY",
        "usubjid": "03-070",
        "vstestcd": "SYSBP",
        "vsorres": "",
        "vsdtc": "27/02/2013"
      },
      {
        "studyid": "TEST-STUDY",
        "usubjid": "04-115",
        "vstestcd": "SYSBP",
        "vsorres": "139",
        "vsdtc": "28/02/2013"
      },
      {
        "studyid": "TEST-STUDY",
        "usubjid": "04-116",
        "vstestcd": "SYSBP",
        "vsorres": "",
        "vsdtc": "28/02/2013"
      },
      {
        "studyid": "TEST-STUDY",
        "usubjid": "04-117",
        "vstestcd": "SYSBP",
        "vsorres": "129",
        "vsdtc": "01/03/2013"
      },
      {
        "studyid": "TEST-STUDY",
        "usubjid": "01-047",
        "vstestcd": "SYSBP",
        "vsorres": "122",
        "vsdtc": "04/03/2013"
      },
      {
        "studyid": "TEST-STUDY",
        "usubjid": "15-014",
        "vstestcd": "SYSBP",
        "vsorres": "130",
        "vsdtc": "06/03/2013"
      },
      {
        "studyid": "TEST-STUDY",
        "usubjid": "10-032",
        "vstestcd": "SYSBP",
        "vsorres": "111",
        "vsdtc": "04/02/2013"
      },
      {
        "studyid": "TEST-STUDY",
        "usubjid": "10-033",
        "vstestcd": "SYSBP",
        "vsorres": "120",
        "vsdtc": "20/02/2013"
      },
      {
        "studyid": "TEST-STUDY",
        "usubjid": "10-034",
        "vstestcd": "SYSBP",
        "vsorres": "116",
        "vsdtc": "25/02/2013"
      },
      {
        "studyid": "TEST-STUDY",
        "usubjid": "04-118",
        "vstestcd": "SYSBP",
        "vsorres": "",
        "vsdtc": "05/03/2013"
      },
      {
        "studyid": "TEST-STUDY",
        "usubjid": "06-018",
        "vstestcd": "SYSBP",
        "vsorres": "110",
        "vsdtc": "05/03/2013"
      },
      {
        "studyid": "TEST-STUDY",
        "usubjid": "02-133",
        "vstestcd": "SYSBP",
        "vsorres": "",
        "vsdtc": "23/04/2013"
      },
      {
        "studyid": "TEST-STUDY",
        "usubjid": "13-032",
        "vstestcd": "SYSBP",
        "vsorres": "150",
        "vsdtc": "06/03/2013"
      },
      {
        "studyid": "TEST-STUDY",
        "usubjid": "04-119",
        "vstestcd": "SYSBP",
        "vsorres": "110",
        "vsdtc": "07/03/2013"
      },
      {
        "studyid": "TEST-STUDY",
        "usubjid": "04-121",
        "vstestcd": "SYSBP",
        "vsorres": "109",
        "vsdtc": "08/03/2013"
      },
      {
        "studyid": "TEST-STUDY",
        "usubjid": "04-122",
        "vstestcd": "SYSBP",
        "vsorres": "",
        "vsdtc": "08/03/2013"
      },
      {
        "studyid": "TEST-STUDY",
        "usubjid": "02-135",
        "vstestcd": "SYSBP",
        "vsorres": "",
        "vsdtc": "11/03/2013"
      },
      {
        "studyid": "TEST-STUDY",
        "usubjid": "15-015",
        "vstestcd": "SYSBP",
        "vsorres": "134",
        "vsdtc": "03/04/2013"
      },
      {
        "studyid": "TEST-STUDY",
        "usubjid": "03-068",
        "vstestcd": "SYSBP",
        "vsorres": "130",
        "vsdtc": "14/03/2013"
      },
      {
        "studyid": "TEST-STUDY",
        "usubjid": "03-069",
        "vstestcd": "SYSBP",
        "vsorres": "",
        "vsdtc": ""
      },
      {
        "studyid": "TEST-STUDY",
        "usubjid": "03-067",
        "vstestcd": "SYSBP",
        "vsorres": "136",
        "vsdtc": "05/03/2013"
      },
      {
        "studyid": "TEST-STUDY",
        "usubjid": "03-071",
        "vstestcd": "SYSBP",
        "vsorres": "",
        "vsdtc": "06/03/2013"
      },
      {
        "studyid": "TEST-STUDY",
        "usubjid": "04-123",
        "vstestcd": "SYSBP",
        "vsorres": "",
        "vsdtc": "12/03/2013"
      },
      {
        "studyid": "TEST-STUDY",
        "usubjid": "04-124",
        "vstestcd": "SYSBP",
        "vsorres": "",
        "vsdtc": "14/03/2013"
      },
      {
        "studyid": "TEST-STUDY",
        "usubjid": "04-125",
        "vstestcd": "SYSBP",
        "vsorres": "113",
        "vsdtc": "14/03/2013"
      },
      {
        "studyid": "TEST-STUDY",
        "usubjid": "04-126",
        "vstestcd": "SYSBP",
        "vsorres": "119",
        "vsdtc": "15/03/2013"
      },
      {
        "studyid": "TEST-STUDY",
        "usubjid": "04-127",
        "vstestcd": "SYSBP",
        "vsorres": "121",
        "vsdtc": "15/03/2013"
      },
      {
        "studyid": "TEST-STUDY",
        "usubjid": "14-045",
        "vstestcd": "SYSBP",
        "vsorres": "157",
        "vsdtc": "22/04/2013"
      },
      {
        "studyid": "TEST-STUDY",
        "usubjid": "11-021",
        "vstestcd": "SYSBP",
        "vsorres": "131",
        "vsdtc": "24/04/2013"
      },
      {
        "studyid": "TEST-STUDY",
        "usubjid": "02-136",
        "vstestcd": "SYSBP",
        "vsorres": "134",
        "vsdtc": "04/04/2013"
      },
      {
        "studyid": "TEST-STUDY",
        "usubjid": "02-137",
        "vstestcd": "SYSBP",
        "vsorres": "",
        "vsdtc": "24/04/2013"
      },
      {
        "studyid": "TEST-STUDY",
        "usubjid": "04-128",
        "vstestcd": "SYSBP",
        "vsorres": "",
        "vsdtc": "19/03/2013"
      },
      {
        "studyid": "TEST-STUDY",
        "usubjid": "09-030",
        "vstestcd": "SYSBP",
        "vsorres": "150",
        "vsdtc": "20/03/2013"
      },
      {
        "studyid": "TEST-STUDY",
        "usubjid": "05-048",
        "vstestcd": "SYSBP",
        "vsorres": "135",
        "vsdtc": "21/03/2013"
      },
      {
        "studyid": "TEST-STUDY",
        "usubjid": "09-031",
        "vstestcd": "SYSBP",
        "vsorres": "140",
        "vsdtc": "21/03/2013"
      },
      {
        "studyid": "TEST-STUDY",
        "usubjid": "01-048",
        "vstestcd": "SYSBP",
        "vsorres": "160",
        "vsdtc": "22/04/2013"
      },
      {
        "studyid": "TEST-STUDY",
        "usubjid": "03-073",
        "vstestcd": "SYSBP",
        "vsorres": "114",
        "vsdtc": "12/04/2013"
      },
      {
        "studyid": "TEST-STUDY",
        "usubjid": "03-074",
        "vstestcd": "SYSBP",
        "vsorres": "",
        "vsdtc": ""
      },
      {
        "studyid": "TEST-STUDY",
        "usubjid": "03-075",
        "vstestcd": "SYSBP",
        "vsorres": "",
        "vsdtc": ""
      },
      {
        "studyid": "TEST-STUDY",
        "usubjid": "04-129",
        "vstestcd": "SYSBP",
        "vsorres": "135",
        "vsdtc": "21/03/2013"
      },
      {
        "studyid": "TEST-STUDY",
        "usubjid": "04-130",
        "vstestcd": "SYSBP",
        "vsorres": "131",
        "vsdtc": "22/03/2013"
      },
      {
        "studyid": "TEST-STUDY",
        "usubjid": "02-139",
        "vstestcd": "SYSBP",
        "vsorres": "",
        "vsdtc": "22/03/2013"
      },
      {
        "studyid": "TEST-STUDY",
        "usubjid": "03-076",
        "vstestcd": "SYSBP",
        "vsorres": "",
        "vsdtc": ""
      },
      {
        "studyid": "TEST-STUDY",
        "usubjid": "03-077",
        "vstestcd": "SYSBP",
        "vsorres": "101",
        "vsdtc": "03/07/2013"
      },
      {
        "studyid": "TEST-STUDY",
        "usubjid": "05-049",
        "vstestcd": "SYSBP",
        "vsorres": "",
        "vsdtc": "22/03/2013"
      },
      {
        "studyid": "TEST-STUDY",
        "usubjid": "10-035",
        "vstestcd": "SYSBP",
        "vsorres": "114",
        "vsdtc": "20/03/2013"
      },
      {
        "studyid": "TEST-STUDY",
        "usubjid": "10-036",
        "vstestcd": "SYSBP",
        "vsorres": "114",
        "vsdtc": "21/03/2013"
      },
      {
        "studyid": "TEST-STUDY",
        "usubjid": "12-008",
        "vstestcd": "SYSBP",
        "vsorres": "",
        "vsdtc": "25/03/2013"
      },
      {
        "studyid": "TEST-STUDY",
        "usubjid": "03-078",
        "vstestcd": "SYSBP",
        "vsorres": "",
        "vsdtc": "25/03/2013"
      },
      {
        "studyid": "TEST-STUDY",
        "usubjid": "11-022",
        "vstestcd": "SYSBP",
        "vsorres": "141",
        "vsdtc": "10/04/2013"
      },
      {
        "studyid": "TEST-STUDY",
        "usubjid": "12-009",
        "vstestcd": "SYSBP",
        "vsorres": "",
        "vsdtc": "26/03/2013"
      },
      {
        "studyid": "TEST-STUDY",
        "usubjid": "01-049",
        "vstestcd": "SYSBP",
        "vsorres": "120",
        "vsdtc": "05/04/2013"
      },
      {
        "studyid": "TEST-STUDY",
        "usubjid": "04-131",
        "vstestcd": "SYSBP",
        "vsorres": "",
        "vsdtc": "26/03/2013"
      },
      {
        "studyid": "TEST-STUDY",
        "usubjid": "04-132",
        "vstestcd": "SYSBP",
        "vsorres": "137",
        "vsdtc": "26/03/2013"
      },
      {
        "studyid": "TEST-STUDY",
        "usubjid": "13-033",
        "vstestcd": "SYSBP",
        "vsorres": "110",
        "vsdtc": "15/04/2013"
      },
      {
        "studyid": "TEST-STUDY",
        "usubjid": "13-034",
        "vstestcd": "SYSBP",
        "vsorres": "140",
        "vsdtc": "16/04/2013"
      },
      {
        "studyid": "TEST-STUDY",
        "usubjid": "02-140",
        "vstestcd": "SYSBP",
        "vsorres": "",
        "vsdtc": "10/05/2013"
      },
      {
        "studyid": "TEST-STUDY",
        "usubjid": "14-046",
        "vstestcd": "SYSBP",
        "vsorres": "137",
        "vsdtc": "24/04/2013"
      },
      {
        "studyid": "TEST-STUDY",
        "usubjid": "01-050",
        "vstestcd": "SYSBP",
        "vsorres": "127",
        "vsdtc": "26/03/2013"
      },
      {
        "studyid": "TEST-STUDY",
        "usubjid": "09-032",
        "vstestcd": "SYSBP",
        "vsorres": "130",
        "vsdtc": "26/03/2013"
      },
      {
        "studyid": "TEST-STUDY",
        "usubjid": "10-037",
        "vstestcd": "SYSBP",
        "vsorres": "122",
        "vsdtc": "25/03/2013"
      },
      {
        "studyid": "TEST-STUDY",
        "usubjid": "05-050",
        "vstestcd": "SYSBP",
        "vsorres": "",
        "vsdtc": "26/03/2013"
      },
      {
        "studyid": "TEST-STUDY",
        "usubjid": "11-025",
        "vstestcd": "SYSBP",
        "vsorres": "",
        "vsdtc": ""
      },
      {
        "studyid": "TEST-STUDY",
        "usubjid": "11-026",
        "vstestcd": "SYSBP",
        "vsorres": "167",
        "vsdtc": "09/04/2013"
      },
      {
        "studyid": "TEST-STUDY",
        "usubjid": "11-027",
        "vstestcd": "SYSBP",
        "vsorres": "99",
        "vsdtc": "11/04/2013"
      },
      {
        "studyid": "TEST-STUDY",
        "usubjid": "13-035",
        "vstestcd": "SYSBP",
        "vsorres": "",
        "vsdtc": ""
      },
      {
        "studyid": "TEST-STUDY",
        "usubjid": "03-079",
        "vstestcd": "SYSBP",
        "vsorres": "130",
        "vsdtc": "27/03/2013"
      },
      {
        "studyid": "TEST-STUDY",
        "usubjid": "02-142",
        "vstestcd": "SYSBP",
        "vsorres": "114",
        "vsdtc": "03/04/2013"
      },
      {
        "studyid": "TEST-STUDY",
        "usubjid": "05-051",
        "vstestcd": "SYSBP",
        "vsorres": "105",
        "vsdtc": "05/04/2013"
      },
      {
        "studyid": "TEST-STUDY",
        "usubjid": "05-052",
        "vstestcd": "SYSBP",
        "vsorres": "110",
        "vsdtc": "05/04/2013"
      },
      {
        "studyid": "TEST-STUDY",
        "usubjid": "10-038",
        "vstestcd": "SYSBP",
        "vsorres": "130",
        "vsdtc": "27/03/2013"
      },
      {
        "studyid": "TEST-STUDY",
        "usubjid": "10-039",
        "vstestcd": "SYSBP",
        "vsorres": "115",
        "vsdtc": "28/03/2013"
      },
      {
        "studyid": "TEST-STUDY",
        "usubjid": "04-133",
        "vstestcd": "SYSBP",
        "vsorres": "137",
        "vsdtc": "12/04/2013"
      },
      {
        "studyid": "TEST-STUDY",
        "usubjid": "04-134",
        "vstestcd": "SYSBP",
        "vsorres": "117",
        "vsdtc": "18/04/2013"
      },
      {
        "studyid": "TEST-STUDY",
        "usubjid": "01-001",
        "vstestcd": "DIABP",
        "vsorres": "112",
        "vsdtc": "02/05/2011"
      },
      {
        "studyid": "TEST-STUDY",
        "usubjid": "01-002",
        "vstestcd": "DIABP",
        "vsorres": "81",
        "vsdtc": "24/05/2011"
      },
      {
        "studyid": "TEST-STUDY",
        "usubjid": "01-003",
        "vstestcd": "DIABP",
        "vsorres": "74",
        "vsdtc": "23/05/2011"
      },
      {
        "studyid": "TEST-STUDY",
        "usubjid": "13-001",
        "vstestcd": "DIABP",
        "vsorres": "65",
        "vsdtc": "18/07/2011"
      },
      {
        "studyid": "TEST-STUDY",
        "usubjid": "11-001",
        "vstestcd": "DIABP",
        "vsorres": "77",
        "vsdtc": "04/08/2011"
      },
      {
        "studyid": "TEST-STUDY",
        "usubjid": "11-002",
        "vstestcd": "DIABP",
        "vsorres": "77",
        "vsdtc": "24/08/2011"
      },
      {
        "studyid": "TEST-STUDY",
        "usubjid": "01-004",
        "vstestcd": "DIABP",
        "vsorres": "87",
        "vsdtc": "18/08/2011"
      },
      {
        "studyid": "TEST-STUDY",
        "usubjid": "01-005",
        "vstestcd": "DIABP",
        "vsorres": "80",
        "vsdtc": "02/09/2011"
      },
      {
        "studyid": "TEST-STUDY",
        "usubjid": "11-003",
        "vstestcd": "DIABP",
        "vsorres": "80",
        "vsdtc": "26/09/2011"
      },
      {
        "studyid": "TEST-STUDY",
        "usubjid": "01-006",
        "vstestcd": "DIABP",
        "vsorres": "87",
        "vsdtc": "06/09/2011"
      },
      {
        "studyid": "TEST-STUDY",
        "usubjid": "13-002",
        "vstestcd": "DIABP",
        "vsorres": "70",
        "vsdtc": "12/09/2011"
      },
      {
        "studyid": "TEST-STUDY",
        "usubjid": "01-007",
        "vstestcd": "DIABP",
        "vsorres": "85",
        "vsdtc": "21/09/2011"
      },
      {
        "studyid": "TEST-STUDY",
        "usubjid": "13-003",
        "vstestcd": "DIABP",
        "vsorres": "75",
        "vsdtc": "04/10/2011"
      },
      {
        "studyid": "TEST-STUDY",
        "usubjid": "13-004",
        "vstestcd": "DIABP",
        "vsorres": "80",
        "vsdtc": "24/10/2011"
      },
      {
        "studyid": "TEST-STUDY",
        "usubjid": "01-008",
        "vstestcd": "DIABP",
        "vsorres": "64",
        "vsdtc": "04/10/2011"
      },
      {
        "studyid": "TEST-STUDY",
        "usubjid": "08-002",
        "vstestcd": "DIABP",
        "vsorres": "69",
        "vsdtc": "05/10/2011"
      },
      {
        "studyid": "TEST-STUDY",
        "usubjid": "01-009",
        "vstestcd": "DIABP",
        "vsorres": "85",
        "vsdtc": "30/09/2011"
      },
      {
        "studyid": "TEST-STUDY",
        "usubjid": "01-010",
        "vstestcd": "DIABP",
        "vsorres": "111",
        "vsdtc": "06/10/2011"
      },
      {
        "studyid": "TEST-STUDY",
        "usubjid": "08-003",
        "vstestcd": "DIABP",
        "vsorres": "87",
        "vsdtc": "12/10/2011"
      },
      {
        "studyid": "TEST-STUDY",
        "usubjid": "07-001",
        "vstestcd": "DIABP",
        "vsorres": "80",
        "vsdtc": "26/10/2011"
      },
      {
        "studyid": "TEST-STUDY",
        "usubjid": "13-005",
        "vstestcd": "DIABP",
        "vsorres": "70",
        "vsdtc": "31/10/2011"
      },
      {
        "studyid": "TEST-STUDY",
        "usubjid": "01-011",
        "vstestcd": "DIABP",
        "vsorres": "74",
        "vsdtc": "20/10/2011"
      },
      {
        "studyid": "TEST-STUDY",
        "usubjid": "13-006",
        "vstestcd": "DIABP",
        "vsorres": "70",
        "vsdtc": "03/11/2011"
      },
      {
        "studyid": "TEST-STUDY",
        "usubjid": "07-002",
        "vstestcd": "DIABP",
        "vsorres": "80",
        "vsdtc": "02/11/2011"
      },
      {
        "studyid": "TEST-STUDY",
        "usubjid": "01-012",
        "vstestcd": "DIABP",
        "vsorres": "79",
        "vsdtc": "21/10/2011"
      },
      {
        "studyid": "TEST-STUDY",
        "usubjid": "13-007",
        "vstestcd": "DIABP",
        "vsorres": "85",
        "vsdtc": "17/11/2011"
      },
      {
        "studyid": "TEST-STUDY",
        "usubjid": "07-003",
        "vstestcd": "DIABP",
        "vsorres": "90",
        "vsdtc": "09/11/2011"
      },
      {
        "studyid": "TEST-STUDY",
        "usubjid": "07-004",
        "vstestcd": "DIABP",
        "vsorres": "85",
        "vsdtc": "16/11/2011"
      },
      {
        "studyid": "TEST-STUDY",
        "usubjid": "11-005",
        "vstestcd": "DIABP",
        "vsorres": "85",
        "vsdtc": "10/11/2011"
      },
      {
        "studyid": "TEST-STUDY",
        "usubjid": "07-005",
        "vstestcd": "DIABP",
        "vsorres": "80",
        "vsdtc": "23/11/2011"
      },
      {
        "studyid": "TEST-STUDY",
        "usubjid": "13-008",
        "vstestcd": "DIABP",
        "vsorres": "",
        "vsdtc": "14/11/2011"
      },
      {
        "studyid": "TEST-STUDY",
        "usubjid": "08-004",
        "vstestcd": "DIABP",
        "vsorres": "",
        "vsdtc": "09/11/2011"
      },
      {
        "studyid": "TEST-STUDY",
        "usubjid": "13-009",
        "vstestcd": "DIABP",
        "vsorres": "90",
        "vsdtc": "25/11/2011"
      },
      {
        "studyid": "TEST-STUDY",
        "usubjid": "01-014",
        "vstestcd": "DIABP",
        "vsorres": "90",
        "vsdtc": "22/11/2011"
      },
      {
        "studyid": "TEST-STUDY",
        "usubjid": "02-002",
        "vstestcd": "DIABP",
        "vsorres": "",
        "vsdtc": "23/11/2011"
      },
      {
        "studyid": "TEST-STUDY",
        "usubjid": "05-003",
        "vstestcd": "DIABP",
        "vsorres": "75",
        "vsdtc": "21/12/2011"
      },
      {
        "studyid": "TEST-STUDY",
        "usubjid": "05-004",
        "vstestcd": "DIABP",
        "vsorres": "80",
        "vsdtc": "20/12/2011"
      },
      {
        "studyid": "TEST-STUDY",
        "usubjid": "02-003",
        "vstestcd": "DIABP",
        "vsorres": "",
        "vsdtc": "25/11/2011"
      },
      {
        "studyid": "TEST-STUDY",
        "usubjid": "07-007",
        "vstestcd": "DIABP",
        "vsorres": "100",
        "vsdtc": "30/11/2011"
      },
      {
        "studyid": "TEST-STUDY",
        "usubjid": "07-008",
        "vstestcd": "DIABP",
        "vsorres": "75",
        "vsdtc": "07/12/2011"
      },
      {
        "studyid": "TEST-STUDY",
        "usubjid": "02-005",
        "vstestcd": "DIABP",
        "vsorres": "",
        "vsdtc": "30/11/2011"
      },
      {
        "studyid": "TEST-STUDY",
        "usubjid": "02-006",
        "vstestcd": "DIABP",
        "vsorres": "",
        "vsdtc": "30/11/2011"
      },
      {
        "studyid": "TEST-STUDY",
        "usubjid": "04-001",
        "vstestcd": "DIABP",
        "vsorres": "70",
        "vsdtc": "01/12/2011"
      },
      {
        "studyid": "TEST-STUDY",
        "usubjid": "13-010",
        "vstestcd": "DIABP",
        "vsorres": "85",
        "vsdtc": "13/12/2011"
      },
      {
        "studyid": "TEST-STUDY",
        "usubjid": "13-011",
        "vstestcd": "DIABP",
        "vsorres": "85",
        "vsdtc": "16/12/2011"
      },
      {
        "studyid": "TEST-STUDY",
        "usubjid": "13-012",
        "vstestcd": "DIABP",
        "vsorres": "80",
        "vsdtc": "03/01/2012"
      },
      {
        "studyid": "TEST-STUDY",
        "usubjid": "02-007",
        "vstestcd": "DIABP",
        "vsorres": "",
        "vsdtc": "06/12/2011"
      },
      {
        "studyid": "TEST-STUDY",
        "usubjid": "07-009",
        "vstestcd": "DIABP",
        "vsorres": "75",
        "vsdtc": "14/12/2011"
      },
      {
        "studyid": "TEST-STUDY",
        "usubjid": "05-005",
        "vstestcd": "DIABP",
        "vsorres": "70",
        "vsdtc": "27/12/2011"
      },
      {
        "studyid": "TEST-STUDY",
        "usubjid": "04-002",
        "vstestcd": "DIABP",
        "vsorres": "63",
        "vsdtc": "08/12/2011"
      },
      {
        "studyid": "TEST-STUDY",
        "usubjid": "07-010",
        "vstestcd": "DIABP",
        "vsorres": "75",
        "vsdtc": "04/01/2012"
      },
      {
        "studyid": "TEST-STUDY",
        "usubjid": "02-009",
        "vstestcd": "DIABP",
        "vsorres": "",
        "vsdtc": "14/12/2011"
      },
      {
        "studyid": "TEST-STUDY",
        "usubjid": "01-015",
        "vstestcd": "DIABP",
        "vsorres": "92",
        "vsdtc": "19/12/2011"
      },
      {
        "studyid": "TEST-STUDY",
        "usubjid": "07-011",
        "vstestcd": "DIABP",
        "vsorres": "70",
        "vsdtc": "11/01/2012"
      },
      {
        "studyid": "TEST-STUDY",
        "usubjid": "05-007",
        "vstestcd": "DIABP",
        "vsorres": "",
        "vsdtc": "28/12/2011"
      },
      {
        "studyid": "TEST-STUDY",
        "usubjid": "05-008",
        "vstestcd": "DIABP",
        "vsorres": "78",
        "vsdtc": "03/01/2012"
      },
      {
        "studyid": "TEST-STUDY",
        "usubjid": "05-009",
        "vstestcd": "DIABP",
        "vsorres": "76",
        "vsdtc": "04/01/2012"
      },
      {
        "studyid": "TEST-STUDY",
        "usubjid": "01-016",
        "vstestcd": "DIABP",
        "vsorres": "88",
        "vsdtc": "29/12/2011"
      },
      {
        "studyid": "TEST-STUDY",
        "usubjid": "02-010",
        "vstestcd": "DIABP",
        "vsorres": "",
        "vsdtc": "03/01/2012"
      },
      {
        "studyid": "TEST-STUDY",
        "usubjid": "07-012",
        "vstestcd": "DIABP",
        "vsorres": "70",
        "vsdtc": "18/01/2012"
      },
      {
        "studyid": "TEST-STUDY",
        "usubjid": "04-003",
        "vstestcd": "DIABP",
        "vsorres": "84",
        "vsdtc": "04/01/2012"
      },
      {
        "studyid": "TEST-STUDY",
        "usubjid": "01-017",
        "vstestcd": "DIABP",
        "vsorres": "90",
        "vsdtc": "10/01/2012"
      },
      {
        "studyid": "TEST-STUDY",
        "usubjid": "13-013",
        "vstestcd": "DIABP",
        "vsorres": "80",
        "vsdtc": "25/01/2012"
      },
      {
        "studyid": "TEST-STUDY",
        "usubjid": "13-014",
        "vstestcd": "DIABP",
        "vsorres": "80",
        "vsdtc": "26/01/2012"
      },
      {
        "studyid": "TEST-STUDY",
        "usubjid": "04-004",
        "vstestcd": "DIABP",
        "vsorres": "70",
        "vsdtc": "05/01/2012"
      },
      {
        "studyid": "TEST-STUDY",
        "usubjid": "13-015",
        "vstestcd": "DIABP",
        "vsorres": "85",
        "vsdtc": "08/02/2012"
      },
      {
        "studyid": "TEST-STUDY",
        "usubjid": "02-011",
        "vstestcd": "DIABP",
        "vsorres": "",
        "vsdtc": "06/01/2012"
      },
      {
        "studyid": "TEST-STUDY",
        "usubjid": "02-012",
        "vstestcd": "DIABP",
        "vsorres": "",
        "vsdtc": "10/01/2012"
      },
      {
        "studyid": "TEST-STUDY",
        "usubjid": "01-018",
        "vstestcd": "DIABP",
        "vsorres": "85",
        "vsdtc": "10/01/2012"
      },
      {
        "studyid": "TEST-STUDY",
        "usubjid": "11-008",
        "vstestcd": "DIABP",
        "vsorres": "77",
        "vsdtc": "17/01/2012"
      },
      {
        "studyid": "TEST-STUDY",
        "usubjid": "04-005",
        "vstestcd": "DIABP",
        "vsorres": "",
        "vsdtc": "11/01/2012"
      },
      {
        "studyid": "TEST-STUDY",
        "usubjid": "13-016",
        "vstestcd": "DIABP",
        "vsorres": "75",
        "vsdtc": "30/01/2012"
      },
      {
        "studyid": "TEST-STUDY",
        "usubjid": "08-005",
        "vstestcd": "DIABP",
        "vsorres": "83",
        "vsdtc": "15/12/2011"
      },
      {
        "studyid": "TEST-STUDY",
        "usubjid": "04-006",
        "vstestcd": "DIABP",
        "vsorres": "",
        "vsdtc": "12/01/2012"
      },
      {
        "studyid": "TEST-STUDY",
        "usubjid": "08-006",
        "vstestcd": "DIABP",
        "vsorres": "88",
        "vsdtc": "20/12/2011"
      },
      {
        "studyid": "TEST-STUDY",
        "usubjid": "08-007",
        "vstestcd": "DIABP",
        "vsorres": "75",
        "vsdtc": "11/01/2012"
      },
      {
        "studyid": "TEST-STUDY",
        "usubjid": "11-010",
        "vstestcd": "DIABP",
        "vsorres": "87",
        "vsdtc": "18/01/2012"
      },
      {
        "studyid": "TEST-STUDY",
        "usubjid": "11-011",
        "vstestcd": "DIABP",
        "vsorres": "66",
        "vsdtc": "25/01/2012"
      },
      {
        "studyid": "TEST-STUDY",
        "usubjid": "06-001",
        "vstestcd": "DIABP",
        "vsorres": "80",
        "vsdtc": "24/01/2012"
      },
      {
        "studyid": "TEST-STUDY",
        "usubjid": "07-013",
        "vstestcd": "DIABP",
        "vsorres": "75",
        "vsdtc": "25/01/2012"
      },
      {
        "studyid": "TEST-STUDY",
        "usubjid": "02-013",
        "vstestcd": "DIABP",
        "vsorres": "",
        "vsdtc": "18/01/2012"
      },
      {
        "studyid": "TEST-STUDY",
        "usubjid": "04-007",
        "vstestcd": "DIABP",
        "vsorres": "",
        "vsdtc": "18/01/2012"
      },
      {
        "studyid": "TEST-STUDY",
        "usubjid": "04-008",
        "vstestcd": "DIABP",
        "vsorres": "",
        "vsdtc": "19/01/2012"
      },
      {
        "studyid": "TEST-STUDY",
        "usubjid": "11-013",
        "vstestcd": "DIABP",
        "vsorres": "73",
        "vsdtc": "31/01/2012"
      },
      {
        "studyid": "TEST-STUDY",
        "usubjid": "11-014",
        "vstestcd": "DIABP",
        "vsorres": "73",
        "vsdtc": "31/01/2012"
      },
      {
        "studyid": "TEST-STUDY",
        "usubjid": "11-015",
        "vstestcd": "DIABP",
        "vsorres": "63",
        "vsdtc": "03/02/2012"
      },
      {
        "studyid": "TEST-STUDY",
        "usubjid": "11-016",
        "vstestcd": "DIABP",
        "vsorres": "76",
        "vsdtc": "08/02/2012"
      },
      {
        "studyid": "TEST-STUDY",
        "usubjid": "01-019",
        "vstestcd": "DIABP",
        "vsorres": "82",
        "vsdtc": "30/01/2012"
      },
      {
        "studyid": "TEST-STUDY",
        "usubjid": "02-015",
        "vstestcd": "DIABP",
        "vsorres": "",
        "vsdtc": "30/01/2012"
      },
      {
        "studyid": "TEST-STUDY",
        "usubjid": "08-008",
        "vstestcd": "DIABP",
        "vsorres": "",
        "vsdtc": "25/01/2012"
      },
      {
        "studyid": "TEST-STUDY",
        "usubjid": "02-016",
        "vstestcd": "DIABP",
        "vsorres": "",
        "vsdtc": "31/01/2012"
      },
      {
        "studyid": "TEST-STUDY",
        "usubjid": "09-001",
        "vstestcd": "DIABP",
        "vsorres": "",
        "vsdtc": "31/01/2012"
      },
      {
        "studyid": "TEST-STUDY",
        "usubjid": "07-014",
        "vstestcd": "DIABP",
        "vsorres": "100",
        "vsdtc": "01/02/2012"
      },
      {
        "studyid": "TEST-STUDY",
        "usubjid": "04-009",
        "vstestcd": "DIABP",
        "vsorres": "76",
        "vsdtc": "01/02/2012"
      },
      {
        "studyid": "TEST-STUDY",
        "usubjid": "13-017",
        "vstestcd": "DIABP",
        "vsorres": "80",
        "vsdtc": "17/02/2012"
      },
      {
        "studyid": "TEST-STUDY",
        "usubjid": "13-018",
        "vstestcd": "DIABP",
        "vsorres": "75",
        "vsdtc": "16/02/2012"
      },
      {
        "studyid": "TEST-STUDY",
        "usubjid": "05-010",
        "vstestcd": "DIABP",
        "vsorres": "80",
        "vsdtc": "18/02/2012"
      },
      {
        "studyid": "TEST-STUDY",
        "usubjid": "02-018",
        "vstestcd": "DIABP",
        "vsorres": "",
        "vsdtc": "07/02/2012"
      },
      {
        "studyid": "TEST-STUDY",
        "usubjid": "04-010",
        "vstestcd": "DIABP",
        "vsorres": "82",
        "vsdtc": "08/02/2012"
      },
      {
        "studyid": "TEST-STUDY",
        "usubjid": "06-002",
        "vstestcd": "DIABP",
        "vsorres": "70",
        "vsdtc": "14/02/2012"
      },
      {
        "studyid": "TEST-STUDY",
        "usubjid": "04-011",
        "vstestcd": "DIABP",
        "vsorres": "",
        "vsdtc": "09/02/2012"
      },
      {
        "studyid": "TEST-STUDY",
        "usubjid": "01-020",
        "vstestcd": "DIABP",
        "vsorres": "88",
        "vsdtc": "10/02/2012"
      },
      {
        "studyid": "TEST-STUDY",
        "usubjid": "05-011",
        "vstestcd": "DIABP",
        "vsorres": "80",
        "vsdtc": "25/02/2012"
      },
      {
        "studyid": "TEST-STUDY",
        "usubjid": "07-015",
        "vstestcd": "DIABP",
        "vsorres": "90",
        "vsdtc": "22/02/2012"
      },
      {
        "studyid": "TEST-STUDY",
        "usubjid": "04-012",
        "vstestcd": "DIABP",
        "vsorres": "67",
        "vsdtc": "15/02/2012"
      },
      {
        "studyid": "TEST-STUDY",
        "usubjid": "02-020",
        "vstestcd": "DIABP",
        "vsorres": "",
        "vsdtc": "16/02/2012"
      },
      {
        "studyid": "TEST-STUDY",
        "usubjid": "02-022",
        "vstestcd": "DIABP",
        "vsorres": "",
        "vsdtc": "26/03/2012"
      },
      {
        "studyid": "TEST-STUDY",
        "usubjid": "07-016",
        "vstestcd": "DIABP",
        "vsorres": "90",
        "vsdtc": "29/02/2012"
      },
      {
        "studyid": "TEST-STUDY",
        "usubjid": "05-012",
        "vstestcd": "DIABP",
        "vsorres": "90",
        "vsdtc": "14/03/2012"
      },
      {
        "studyid": "TEST-STUDY",
        "usubjid": "02-023",
        "vstestcd": "DIABP",
        "vsorres": "",
        "vsdtc": "21/02/2012"
      },
      {
        "studyid": "TEST-STUDY",
        "usubjid": "14-001",
        "vstestcd": "DIABP",
        "vsorres": "81",
        "vsdtc": "15/03/2012"
      },
      {
        "studyid": "TEST-STUDY",
        "usubjid": "02-024",
        "vstestcd": "DIABP",
        "vsorres": "83",
        "vsdtc": "21/02/2012"
      },
      {
        "studyid": "TEST-STUDY",
        "usubjid": "11-017",
        "vstestcd": "DIABP",
        "vsorres": "61",
        "vsdtc": "24/02/2012"
      },
      {
        "studyid": "TEST-STUDY",
        "usubjid": "04-013",
        "vstestcd": "DIABP",
        "vsorres": "74",
        "vsdtc": "22/02/2012"
      },
      {
        "studyid": "TEST-STUDY",
        "usubjid": "02-025",
        "vstestcd": "DIABP",
        "vsorres": "",
        "vsdtc": "22/02/2012"
      },
      {
        "studyid": "TEST-STUDY",
        "usubjid": "05-013",
        "vstestcd": "DIABP",
        "vsorres": "80",
        "vsdtc": "08/03/2012"
      },
      {
        "studyid": "TEST-STUDY",
        "usubjid": "05-014",
        "vstestcd": "DIABP",
        "vsorres": "75",
        "vsdtc": "08/03/2012"
      },
      {
        "studyid": "TEST-STUDY",
        "usubjid": "04-014",
        "vstestcd": "DIABP",
        "vsorres": "77",
        "vsdtc": "23/02/2012"
      },
      {
        "studyid": "TEST-STUDY",
        "usubjid": "12-002",
        "vstestcd": "DIABP",
        "vsorres": "",
        "vsdtc": "27/02/2012"
      },
      {
        "studyid": "TEST-STUDY",
        "usubjid": "06-004",
        "vstestcd": "DIABP",
        "vsorres": "",
        "vsdtc": "27/02/2012"
      },
      {
        "studyid": "TEST-STUDY",
        "usubjid": "09-004",
        "vstestcd": "DIABP",
        "vsorres": "",
        "vsdtc": "28/02/2012"
      },
      {
        "studyid": "TEST-STUDY",
        "usubjid": "09-005",
        "vstestcd": "DIABP",
        "vsorres": "",
        "vsdtc": "22/03/2012"
      },
      {
        "studyid": "TEST-STUDY",
        "usubjid": "09-006",
        "vstestcd": "DIABP",
        "vsorres": "",
        "vsdtc": "24/05/2012"
      },
      {
        "studyid": "TEST-STUDY",
        "usubjid": "11-018",
        "vstestcd": "DIABP",
        "vsorres": "76",
        "vsdtc": "01/03/2012"
      },
      {
        "studyid": "TEST-STUDY",
        "usubjid": "07-017",
        "vstestcd": "DIABP",
        "vsorres": "65",
        "vsdtc": "07/03/2012"
      },
      {
        "studyid": "TEST-STUDY",
        "usubjid": "06-005",
        "vstestcd": "DIABP",
        "vsorres": "80",
        "vsdtc": "12/03/2012"
      },
      {
        "studyid": "TEST-STUDY",
        "usubjid": "04-015",
        "vstestcd": "DIABP",
        "vsorres": "",
        "vsdtc": "01/03/2012"
      },
      {
        "studyid": "TEST-STUDY",
        "usubjid": "04-016",
        "vstestcd": "DIABP",
        "vsorres": "",
        "vsdtc": "01/03/2012"
      },
      {
        "studyid": "TEST-STUDY",
        "usubjid": "04-017",
        "vstestcd": "DIABP",
        "vsorres": "",
        "vsdtc": "02/03/2012"
      },
      {
        "studyid": "TEST-STUDY",
        "usubjid": "01-021",
        "vstestcd": "DIABP",
        "vsorres": "66",
        "vsdtc": "05/03/2012"
      },
      {
        "studyid": "TEST-STUDY",
        "usubjid": "02-027",
        "vstestcd": "DIABP",
        "vsorres": "70",
        "vsdtc": "05/03/2012"
      },
      {
        "studyid": "TEST-STUDY",
        "usubjid": "05-015",
        "vstestcd": "DIABP",
        "vsorres": "",
        "vsdtc": ""
      },
      {
        "studyid": "TEST-STUDY",
        "usubjid": "07-018",
        "vstestcd": "DIABP",
        "vsorres": "70",
        "vsdtc": "07/03/2012"
      },
      {
        "studyid": "TEST-STUDY",
        "usubjid": "02-028",
        "vstestcd": "DIABP",
        "vsorres": "70",
        "vsdtc": "07/03/2012"
      },
      {
        "studyid": "TEST-STUDY",
        "usubjid": "04-018",
        "vstestcd": "DIABP",
        "vsorres": "68",
        "vsdtc": "08/03/2012"
      },
      {
        "studyid": "TEST-STUDY",
        "usubjid": "13-019",
        "vstestcd": "DIABP",
        "vsorres": "70",
        "vsdtc": "05/03/2012"
      },
      {
        "studyid": "TEST-STUDY",
        "usubjid": "09-007",
        "vstestcd": "DIABP",
        "vsorres": "",
        "vsdtc": "12/03/2012"
      },
      {
        "studyid": "TEST-STUDY",
        "usubjid": "02-029",
        "vstestcd": "DIABP",
        "vsorres": "",
        "vsdtc": "12/03/2012"
      },
      {
        "studyid": "TEST-STUDY",
        "usubjid": "07-019",
        "vstestcd": "DIABP",
        "vsorres": "80",
        "vsdtc": "28/03/2012"
      },
      {
        "studyid": "TEST-STUDY",
        "usubjid": "02-030",
        "vstestcd": "DIABP",
        "vsorres": "95",
        "vsdtc": "15/03/2012"
      },
      {
        "studyid": "TEST-STUDY",
        "usubjid": "13-020",
        "vstestcd": "DIABP",
        "vsorres": "65",
        "vsdtc": "15/03/2012"
      },
      {
        "studyid": "TEST-STUDY",
        "usubjid": "13-021",
        "vstestcd": "DIABP",
        "vsorres": "80",
        "vsdtc": "16/03/2012"
      },
      {
        "studyid": "TEST-STUDY",
        "usubjid": "13-022",
        "vstestcd": "DIABP",
        "vsorres": "85",
        "vsdtc": "19/03/2012"
      },
      {
        "studyid": "TEST-STUDY",
        "usubjid": "08-009",
        "vstestcd": "DIABP",
        "vsorres": "73",
        "vsdtc": "01/02/2012"
      },
      {
        "studyid": "TEST-STUDY",
        "usubjid": "08-010",
        "vstestcd": "DIABP",
        "vsorres": "73",
        "vsdtc": "13/03/2012"
      },
      {
        "studyid": "TEST-STUDY",
        "usubjid": "08-011",
        "vstestcd": "DIABP",
        "vsorres": "65",
        "vsdtc": "19/03/2012"
      },
      {
        "studyid": "TEST-STUDY",
        "usubjid": "02-031",
        "vstestcd": "DIABP",
        "vsorres": "",
        "vsdtc": "19/03/2012"
      },
      {
        "studyid": "TEST-STUDY",
        "usubjid": "02-032",
        "vstestcd": "DIABP",
        "vsorres": "",
        "vsdtc": "20/03/2012"
      },
      {
        "studyid": "TEST-STUDY",
        "usubjid": "02-033",
        "vstestcd": "DIABP",
        "vsorres": "",
        "vsdtc": "20/03/2012"
      },
      {
        "studyid": "TEST-STUDY",
        "usubjid": "07-020",
        "vstestcd": "DIABP",
        "vsorres": "70",
        "vsdtc": "28/03/2012"
      },
      {
        "studyid": "TEST-STUDY",
        "usubjid": "02-034",
        "vstestcd": "DIABP",
        "vsorres": "",
        "vsdtc": "21/03/2012"
      },
      {
        "studyid": "TEST-STUDY",
        "usubjid": "02-035",
        "vstestcd": "DIABP",
        "vsorres": "",
        "vsdtc": "22/03/2012"
      },
      {
        "studyid": "TEST-STUDY",
        "usubjid": "12-003",
        "vstestcd": "DIABP",
        "vsorres": "82",
        "vsdtc": "23/03/2012"
      },
      {
        "studyid": "TEST-STUDY",
        "usubjid": "03-002",
        "vstestcd": "DIABP",
        "vsorres": "",
        "vsdtc": "29/03/2012"
      },
      {
        "studyid": "TEST-STUDY",
        "usubjid": "03-003",
        "vstestcd": "DIABP",
        "vsorres": "",
        "vsdtc": "23/03/2012"
      },
      {
        "studyid": "TEST-STUDY",
        "usubjid": "12-004",
        "vstestcd": "DIABP",
        "vsorres": "",
        "vsdtc": "26/03/2012"
      },
      {
        "studyid": "TEST-STUDY",
        "usubjid": "01-022",
        "vstestcd": "DIABP",
        "vsorres": "96",
        "vsdtc": "26/03/2012"
      },
      {
        "studyid": "TEST-STUDY",
        "usubjid": "01-023",
        "vstestcd": "DIABP",
        "vsorres": "81",
        "vsdtc": "04/04/2012"
      },
      {
        "studyid": "TEST-STUDY",
        "usubjid": "12-005",
        "vstestcd": "DIABP",
        "vsorres": "",
        "vsdtc": "27/03/2012"
      },
      {
        "studyid": "TEST-STUDY",
        "usubjid": "02-036",
        "vstestcd": "DIABP",
        "vsorres": "",
        "vsdtc": "13/04/2012"
      },
      {
        "studyid": "TEST-STUDY",
        "usubjid": "05-016",
        "vstestcd": "DIABP",
        "vsorres": "60",
        "vsdtc": "04/04/2012"
      },
      {
        "studyid": "TEST-STUDY",
        "usubjid": "05-017",
        "vstestcd": "DIABP",
        "vsorres": "75",
        "vsdtc": "04/04/2012"
      },
      {
        "studyid": "TEST-STUDY",
        "usubjid": "06-006",
        "vstestcd": "DIABP",
        "vsorres": "75",
        "vsdtc": "04/04/2012"
      },
      {
        "studyid": "TEST-STUDY",
        "usubjid": "05-018",
        "vstestcd": "DIABP",
        "vsorres": "80",
        "vsdtc": "17/04/2012"
      },
      {
        "studyid": "TEST-STUDY",
        "usubjid": "04-019",
        "vstestcd": "DIABP",
        "vsorres": "91",
        "vsdtc": "30/03/2012"
      },
      {
        "studyid": "TEST-STUDY",
        "usubjid": "04-020",
        "vstestcd": "DIABP",
        "vsorres": "",
        "vsdtc": "30/03/2012"
      },
      {
        "studyid": "TEST-STUDY",
        "usubjid": "02-037",
        "vstestcd": "DIABP",
        "vsorres": "74",
        "vsdtc": "05/04/2012"
      },
      {
        "studyid": "TEST-STUDY",
        "usubjid": "02-038",
        "vstestcd": "DIABP",
        "vsorres": "",
        "vsdtc": "03/04/2012"
      },
      {
        "studyid": "TEST-STUDY",
        "usubjid": "07-021",
        "vstestcd": "DIABP",
        "vsorres": "80",
        "vsdtc": "11/04/2012"
      },
      {
        "studyid": "TEST-STUDY",
        "usubjid": "07-022",
        "vstestcd": "DIABP",
        "vsorres": "",
        "vsdtc": "03/04/2012"
      },
      {
        "studyid": "TEST-STUDY",
        "usubjid": "05-019",
        "vstestcd": "DIABP",
        "vsorres": "70",
        "vsdtc": "27/04/2012"
      },
      {
        "studyid": "TEST-STUDY",
        "usubjid": "03-004",
        "vstestcd": "DIABP",
        "vsorres": "",
        "vsdtc": "05/04/2012"
      },
      {
        "studyid": "TEST-STUDY",
        "usubjid": "01-024",
        "vstestcd": "DIABP",
        "vsorres": "91",
        "vsdtc": "10/04/2012"
      },
      {
        "studyid": "TEST-STUDY",
        "usubjid": "13-023",
        "vstestcd": "DIABP",
        "vsorres": "80",
        "vsdtc": "12/04/2012"
      },
      {
        "studyid": "TEST-STUDY",
        "usubjid": "07-023",
        "vstestcd": "DIABP",
        "vsorres": "90",
        "vsdtc": "11/04/2012"
      },
      {
        "studyid": "TEST-STUDY",
        "usubjid": "04-021",
        "vstestcd": "DIABP",
        "vsorres": "65",
        "vsdtc": "12/04/2012"
      },
      {
        "studyid": "TEST-STUDY",
        "usubjid": "14-005",
        "vstestcd": "DIABP",
        "vsorres": "74",
        "vsdtc": "10/05/2012"
      },
      {
        "studyid": "TEST-STUDY",
        "usubjid": "03-005",
        "vstestcd": "DIABP",
        "vsorres": "",
        "vsdtc": "13/04/2012"
      },
      {
        "studyid": "TEST-STUDY",
        "usubjid": "04-022",
        "vstestcd": "DIABP",
        "vsorres": "60",
        "vsdtc": "13/04/2012"
      },
      {
        "studyid": "TEST-STUDY",
        "usubjid": "12-006",
        "vstestcd": "DIABP",
        "vsorres": "",
        "vsdtc": "16/04/2012"
      },
      {
        "studyid": "TEST-STUDY",
        "usubjid": "11-019",
        "vstestcd": "DIABP",
        "vsorres": "92",
        "vsdtc": "16/04/2012"
      },
      {
        "studyid": "TEST-STUDY",
        "usubjid": "02-039",
        "vstestcd": "DIABP",
        "vsorres": "",
        "vsdtc": "02/05/2012"
      },
      {
        "studyid": "TEST-STUDY",
        "usubjid": "05-020",
        "vstestcd": "DIABP",
        "vsorres": "80",
        "vsdtc": "17/04/2012"
      },
      {
        "studyid": "TEST-STUDY",
        "usubjid": "01-025",
        "vstestcd": "DIABP",
        "vsorres": "96",
        "vsdtc": "18/04/2012"
      },
      {
        "studyid": "TEST-STUDY",
        "usubjid": "03-006",
        "vstestcd": "DIABP",
        "vsorres": "93",
        "vsdtc": "09/05/2012"
      },
      {
        "studyid": "TEST-STUDY",
        "usubjid": "03-007",
        "vstestcd": "DIABP",
        "vsorres": "64",
        "vsdtc": "03/05/2012"
      },
      {
        "studyid": "TEST-STUDY",
        "usubjid": "05-021",
        "vstestcd": "DIABP",
        "vsorres": "80",
        "vsdtc": "08/05/2012"
      },
      {
        "studyid": "TEST-STUDY",
        "usubjid": "14-006",
        "vstestcd": "DIABP",
        "vsorres": "90",
        "vsdtc": "19/04/2012"
      },
      {
        "studyid": "TEST-STUDY",
        "usubjid": "04-023",
        "vstestcd": "DIABP",
        "vsorres": "83",
        "vsdtc": "19/04/2012"
      },
      {
        "studyid": "TEST-STUDY",
        "usubjid": "04-024",
        "vstestcd": "DIABP",
        "vsorres": "70",
        "vsdtc": "19/04/2012"
      },
      {
        "studyid": "TEST-STUDY",
        "usubjid": "05-022",
        "vstestcd": "DIABP",
        "vsorres": "70",
        "vsdtc": "03/05/2012"
      },
      {
        "studyid": "TEST-STUDY",
        "usubjid": "01-026",
        "vstestcd": "DIABP",
        "vsorres": "76",
        "vsdtc": "12/10/2011"
      },
      {
        "studyid": "TEST-STUDY",
        "usubjid": "09-009",
        "vstestcd": "DIABP",
        "vsorres": "",
        "vsdtc": "24/04/2012"
      },
      {
        "studyid": "TEST-STUDY",
        "usubjid": "09-010",
        "vstestcd": "DIABP",
        "vsorres": "",
        "vsdtc": "25/04/2012"
      },
      {
        "studyid": "TEST-STUDY",
        "usubjid": "01-027",
        "vstestcd": "DIABP",
        "vsorres": "86",
        "vsdtc": "23/04/2012"
      },
      {
        "studyid": "TEST-STUDY",
        "usubjid": "05-023",
        "vstestcd": "DIABP",
        "vsorres": "",
        "vsdtc": "24/04/2012"
      },
      {
        "studyid": "TEST-STUDY",
        "usubjid": "02-041",
        "vstestcd": "DIABP",
        "vsorres": "",
        "vsdtc": "24/04/2012"
      },
      {
        "studyid": "TEST-STUDY",
        "usubjid": "07-024",
        "vstestcd": "DIABP",
        "vsorres": "",
        "vsdtc": "24/04/2012"
      },
      {
        "studyid": "TEST-STUDY",
        "usubjid": "06-007",
        "vstestcd": "DIABP",
        "vsorres": "85",
        "vsdtc": "08/05/2012"
      },
      {
        "studyid": "TEST-STUDY",
        "usubjid": "04-025",
        "vstestcd": "DIABP",
        "vsorres": "81",
        "vsdtc": "26/04/2012"
      },
      {
        "studyid": "TEST-STUDY",
        "usubjid": "05-024",
        "vstestcd": "DIABP",
        "vsorres": "60",
        "vsdtc": "03/05/2012"
      },
      {
        "studyid": "TEST-STUDY",
        "usubjid": "04-026",
        "vstestcd": "DIABP",
        "vsorres": "77",
        "vsdtc": "26/04/2012"
      },
      {
        "studyid": "TEST-STUDY",
        "usubjid": "02-042",
        "vstestcd": "DIABP",
        "vsorres": "",
        "vsdtc": "16/05/2012"
      },
      {
        "studyid": "TEST-STUDY",
        "usubjid": "03-008",
        "vstestcd": "DIABP",
        "vsorres": "",
        "vsdtc": "26/04/2012"
      },
      {
        "studyid": "TEST-STUDY",
        "usubjid": "14-009",
        "vstestcd": "DIABP",
        "vsorres": "86",
        "vsdtc": "05/02/2013"
      },
      {
        "studyid": "TEST-STUDY",
        "usubjid": "04-027",
        "vstestcd": "DIABP",
        "vsorres": "66",
        "vsdtc": "27/04/2012"
      },
      {
        "studyid": "TEST-STUDY",
        "usubjid": "04-028",
        "vstestcd": "DIABP",
        "vsorres": "63",
        "vsdtc": "27/04/2012"
      },
      {
        "studyid": "TEST-STUDY",
        "usubjid": "03-009",
        "vstestcd": "DIABP",
        "vsorres": "",
        "vsdtc": "27/04/2012"
      },
      {
        "studyid": "TEST-STUDY",
        "usubjid": "14-010",
        "vstestcd": "DIABP",
        "vsorres": "63",
        "vsdtc": "27/06/2012"
      },
      {
        "studyid": "TEST-STUDY",
        "usubjid": "09-011",
        "vstestcd": "DIABP",
        "vsorres": "",
        "vsdtc": "04/05/2012"
      },
      {
        "studyid": "TEST-STUDY",
        "usubjid": "02-043",
        "vstestcd": "DIABP",
        "vsorres": "",
        "vsdtc": "30/04/2012"
      },
      {
        "studyid": "TEST-STUDY",
        "usubjid": "08-012",
        "vstestcd": "DIABP",
        "vsorres": "",
        "vsdtc": "30/04/2012"
      },
      {
        "studyid": "TEST-STUDY",
        "usubjid": "06-008",
        "vstestcd": "DIABP",
        "vsorres": "70",
        "vsdtc": "02/05/2012"
      },
      {
        "studyid": "TEST-STUDY",
        "usubjid": "04-029",
        "vstestcd": "DIABP",
        "vsorres": "71",
        "vsdtc": "03/05/2012"
      },
      {
        "studyid": "TEST-STUDY",
        "usubjid": "04-030",
        "vstestcd": "DIABP",
        "vsorres": "72",
        "vsdtc": "03/05/2012"
      },
      {
        "studyid": "TEST-STUDY",
        "usubjid": "03-010",
        "vstestcd": "DIABP",
        "vsorres": "",
        "vsdtc": "03/05/2012"
      },
      {
        "studyid": "TEST-STUDY",
        "usubjid": "09-012",
        "vstestcd": "DIABP",
        "vsorres": "",
        "vsdtc": "07/06/2012"
      },
      {
        "studyid": "TEST-STUDY",
        "usubjid": "09-013",
        "vstestcd": "DIABP",
        "vsorres": "",
        "vsdtc": "04/05/2012"
      },
      {
        "studyid": "TEST-STUDY",
        "usubjid": "04-031",
        "vstestcd": "DIABP",
        "vsorres": "62",
        "vsdtc": "08/05/2012"
      },
      {
        "studyid": "TEST-STUDY",
        "usubjid": "10-001",
        "vstestcd": "DIABP",
        "vsorres": "85",
        "vsdtc": "14/06/2012"
      },
      {
        "studyid": "TEST-STUDY",
        "usubjid": "13-024",
        "vstestcd": "DIABP",
        "vsorres": "80",
        "vsdtc": "14/05/2012"
      },
      {
        "studyid": "TEST-STUDY",
        "usubjid": "04-032",
        "vstestcd": "DIABP",
        "vsorres": "82",
        "vsdtc": "10/05/2012"
      },
      {
        "studyid": "TEST-STUDY",
        "usubjid": "03-011",
        "vstestcd": "DIABP",
        "vsorres": "",
        "vsdtc": "10/05/2012"
      },
      {
        "studyid": "TEST-STUDY",
        "usubjid": "04-033",
        "vstestcd": "DIABP",
        "vsorres": "76",
        "vsdtc": "11/05/2012"
      },
      {
        "studyid": "TEST-STUDY",
        "usubjid": "04-034",
        "vstestcd": "DIABP",
        "vsorres": "",
        "vsdtc": "11/05/2012"
      },
      {
        "studyid": "TEST-STUDY",
        "usubjid": "11-023",
        "vstestcd": "DIABP",
        "vsorres": "73",
        "vsdtc": "14/05/2012"
      },
      {
        "studyid": "TEST-STUDY",
        "usubjid": "02-044",
        "vstestcd": "DIABP",
        "vsorres": "",
        "vsdtc": "14/05/2012"
      },
      {
        "studyid": "TEST-STUDY",
        "usubjid": "08-013",
        "vstestcd": "DIABP",
        "vsorres": "",
        "vsdtc": "14/05/2012"
      },
      {
        "studyid": "TEST-STUDY",
        "usubjid": "09-014",
        "vstestcd": "DIABP",
        "vsorres": "",
        "vsdtc": "24/05/2012"
      },
      {
        "studyid": "TEST-STUDY",
        "usubjid": "02-045",
        "vstestcd": "DIABP",
        "vsorres": "65",
        "vsdtc": "21/05/2012"
      },
      {
        "studyid": "TEST-STUDY",
        "usubjid": "07-025",
        "vstestcd": "DIABP",
        "vsorres": "95",
        "vsdtc": "16/05/2012"
      },
      {
        "studyid": "TEST-STUDY",
        "usubjid": "07-026",
        "vstestcd": "DIABP",
        "vsorres": "",
        "vsdtc": "16/05/2012"
      },
      {
        "studyid": "TEST-STUDY",
        "usubjid": "07-027",
        "vstestcd": "DIABP",
        "vsorres": "80",
        "vsdtc": "30/05/2012"
      },
      {
        "studyid": "TEST-STUDY",
        "usubjid": "02-046",
        "vstestcd": "DIABP",
        "vsorres": "68",
        "vsdtc": "22/05/2012"
      },
      {
        "studyid": "TEST-STUDY",
        "usubjid": "05-026",
        "vstestcd": "DIABP",
        "vsorres": "90",
        "vsdtc": "12/06/2012"
      },
      {
        "studyid": "TEST-STUDY",
        "usubjid": "05-027",
        "vstestcd": "DIABP",
        "vsorres": "80",
        "vsdtc": "25/05/2012"
      },
      {
        "studyid": "TEST-STUDY",
        "usubjid": "05-028",
        "vstestcd": "DIABP",
        "vsorres": "85",
        "vsdtc": "01/06/2012"
      },
      {
        "studyid": "TEST-STUDY",
        "usubjid": "10-002",
        "vstestcd": "DIABP",
        "vsorres": "105",
        "vsdtc": "04/07/2012"
      },
      {
        "studyid": "TEST-STUDY",
        "usubjid": "04-035",
        "vstestcd": "DIABP",
        "vsorres": "72",
        "vsdtc": "24/05/2012"
      },
      {
        "studyid": "TEST-STUDY",
        "usubjid": "04-036",
        "vstestcd": "DIABP",
        "vsorres": "",
        "vsdtc": "24/05/2012"
      },
      {
        "studyid": "TEST-STUDY",
        "usubjid": "10-003",
        "vstestcd": "DIABP",
        "vsorres": "95",
        "vsdtc": "02/07/2012"
      },
      {
        "studyid": "TEST-STUDY",
        "usubjid": "04-037",
        "vstestcd": "DIABP",
        "vsorres": "65",
        "vsdtc": "25/05/2012"
      },
      {
        "studyid": "TEST-STUDY",
        "usubjid": "04-038",
        "vstestcd": "DIABP",
        "vsorres": "85",
        "vsdtc": "25/05/2012"
      },
      {
        "studyid": "TEST-STUDY",
        "usubjid": "02-048",
        "vstestcd": "DIABP",
        "vsorres": "",
        "vsdtc": "29/05/2012"
      },
      {
        "studyid": "TEST-STUDY",
        "usubjid": "09-015",
        "vstestcd": "DIABP",
        "vsorres": "",
        "vsdtc": "30/05/2012"
      },
      {
        "studyid": "TEST-STUDY",
        "usubjid": "09-016",
        "vstestcd": "DIABP",
        "vsorres": "",
        "vsdtc": "30/05/2012"
      },
      {
        "studyid": "TEST-STUDY",
        "usubjid": "13-025",
        "vstestcd": "DIABP",
        "vsorres": "75",
        "vsdtc": "21/06/2012"
      },
      {
        "studyid": "TEST-STUDY",
        "usubjid": "04-039",
        "vstestcd": "DIABP",
        "vsorres": "",
        "vsdtc": "01/06/2012"
      },
      {
        "studyid": "TEST-STUDY",
        "usubjid": "01-028",
        "vstestcd": "DIABP",
        "vsorres": "86",
        "vsdtc": "04/06/2012"
      },
      {
        "studyid": "TEST-STUDY",
        "usubjid": "15-001",
        "vstestcd": "DIABP",
        "vsorres": "100",
        "vsdtc": "18/06/2012"
      },
      {
        "studyid": "TEST-STUDY",
        "usubjid": "07-028",
        "vstestcd": "DIABP",
        "vsorres": "85",
        "vsdtc": "06/06/2012"
      },
      {
        "studyid": "TEST-STUDY",
        "usubjid": "01-029",
        "vstestcd": "DIABP",
        "vsorres": "80",
        "vsdtc": "06/06/2012"
      },
      {
        "studyid": "TEST-STUDY",
        "usubjid": "08-014",
        "vstestcd": "DIABP",
        "vsorres": "66",
        "vsdtc": "04/06/2012"
      },
      {
        "studyid": "TEST-STUDY",
        "usubjid": "09-017",
        "vstestcd": "DIABP",
        "vsorres": "",
        "vsdtc": "07/06/2012"
      },
      {
        "studyid": "TEST-STUDY",
        "usubjid": "08-015",
        "vstestcd": "DIABP",
        "vsorres": "",
        "vsdtc": "29/05/2012"
      },
      {
        "studyid": "TEST-STUDY",
        "usubjid": "05-029",
        "vstestcd": "DIABP",
        "vsorres": "70",
        "vsdtc": "08/06/2012"
      },
      {
        "studyid": "TEST-STUDY",
        "usubjid": "04-040",
        "vstestcd": "DIABP",
        "vsorres": "75",
        "vsdtc": "08/06/2012"
      },
      {
        "studyid": "TEST-STUDY",
        "usubjid": "02-050",
        "vstestcd": "DIABP",
        "vsorres": "",
        "vsdtc": "11/06/2012"
      },
      {
        "studyid": "TEST-STUDY",
        "usubjid": "09-018",
        "vstestcd": "DIABP",
        "vsorres": "",
        "vsdtc": "11/06/2012"
      },
      {
        "studyid": "TEST-STUDY",
        "usubjid": "14-011",
        "vstestcd": "DIABP",
        "vsorres": "78",
        "vsdtc": "11/07/2012"
      },
      {
        "studyid": "TEST-STUDY",
        "usubjid": "02-051",
        "vstestcd": "DIABP",
        "vsorres": "",
        "vsdtc": "12/06/2012"
      },
      {
        "studyid": "TEST-STUDY",
        "usubjid": "14-012",
        "vstestcd": "DIABP",
        "vsorres": "88",
        "vsdtc": "22/06/2012"
      },
      {
        "studyid": "TEST-STUDY",
        "usubjid": "15-002",
        "vstestcd": "DIABP",
        "vsorres": "68",
        "vsdtc": "13/06/2012"
      },
      {
        "studyid": "TEST-STUDY",
        "usubjid": "01-030",
        "vstestcd": "DIABP",
        "vsorres": "85",
        "vsdtc": "13/06/2012"
      },
      {
        "studyid": "TEST-STUDY",
        "usubjid": "05-030",
        "vstestcd": "DIABP",
        "vsorres": "80",
        "vsdtc": "13/07/2012"
      },
      {
        "studyid": "TEST-STUDY",
        "usubjid": "02-052",
        "vstestcd": "DIABP",
        "vsorres": "",
        "vsdtc": "18/06/2012"
      },
      {
        "studyid": "TEST-STUDY",
        "usubjid": "10-004",
        "vstestcd": "DIABP",
        "vsorres": "75",
        "vsdtc": "13/06/2012"
      },
      {
        "studyid": "TEST-STUDY",
        "usubjid": "14-015",
        "vstestcd": "DIABP",
        "vsorres": "57",
        "vsdtc": "28/06/2012"
      },
      {
        "studyid": "TEST-STUDY",
        "usubjid": "02-053",
        "vstestcd": "DIABP",
        "vsorres": "",
        "vsdtc": "25/06/2012"
      },
      {
        "studyid": "TEST-STUDY",
        "usubjid": "02-054",
        "vstestcd": "DIABP",
        "vsorres": "",
        "vsdtc": "19/06/2012"
      },
      {
        "studyid": "TEST-STUDY",
        "usubjid": "02-055",
        "vstestcd": "DIABP",
        "vsorres": "",
        "vsdtc": "20/06/2012"
      },
      {
        "studyid": "TEST-STUDY",
        "usubjid": "03-014",
        "vstestcd": "DIABP",
        "vsorres": "",
        "vsdtc": "20/06/2012"
      },
      {
        "studyid": "TEST-STUDY",
        "usubjid": "08-016",
        "vstestcd": "DIABP",
        "vsorres": "",
        "vsdtc": "19/06/2012"
      },
      {
        "studyid": "TEST-STUDY",
        "usubjid": "04-041",
        "vstestcd": "DIABP",
        "vsorres": "71",
        "vsdtc": "21/06/2012"
      },
      {
        "studyid": "TEST-STUDY",
        "usubjid": "10-005",
        "vstestcd": "DIABP",
        "vsorres": "107",
        "vsdtc": "14/06/2012"
      },
      {
        "studyid": "TEST-STUDY",
        "usubjid": "10-007",
        "vstestcd": "DIABP",
        "vsorres": "79",
        "vsdtc": "20/06/2012"
      },
      {
        "studyid": "TEST-STUDY",
        "usubjid": "10-008",
        "vstestcd": "DIABP",
        "vsorres": "70",
        "vsdtc": "21/06/2012"
      },
      {
        "studyid": "TEST-STUDY",
        "usubjid": "04-042",
        "vstestcd": "DIABP",
        "vsorres": "58",
        "vsdtc": "22/06/2012"
      },
      {
        "studyid": "TEST-STUDY",
        "usubjid": "03-015",
        "vstestcd": "DIABP",
        "vsorres": "71",
        "vsdtc": "22/06/2012"
      },
      {
        "studyid": "TEST-STUDY",
        "usubjid": "03-016",
        "vstestcd": "DIABP",
        "vsorres": "",
        "vsdtc": "20/09/2012"
      },
      {
        "studyid": "TEST-STUDY",
        "usubjid": "01-031",
        "vstestcd": "DIABP",
        "vsorres": "73",
        "vsdtc": "25/06/2012"
      },
      {
        "studyid": "TEST-STUDY",
        "usubjid": "13-026",
        "vstestcd": "DIABP",
        "vsorres": "85",
        "vsdtc": "04/07/2012"
      },
      {
        "studyid": "TEST-STUDY",
        "usubjid": "09-019",
        "vstestcd": "DIABP",
        "vsorres": "",
        "vsdtc": "18/06/2012"
      },
      {
        "studyid": "TEST-STUDY",
        "usubjid": "13-027",
        "vstestcd": "DIABP",
        "vsorres": "70",
        "vsdtc": "02/07/2012"
      },
      {
        "studyid": "TEST-STUDY",
        "usubjid": "04-043",
        "vstestcd": "DIABP",
        "vsorres": "",
        "vsdtc": "28/06/2012"
      },
      {
        "studyid": "TEST-STUDY",
        "usubjid": "06-009",
        "vstestcd": "DIABP",
        "vsorres": "",
        "vsdtc": "28/06/2012"
      },
      {
        "studyid": "TEST-STUDY",
        "usubjid": "05-031",
        "vstestcd": "DIABP",
        "vsorres": "80",
        "vsdtc": "06/07/2012"
      },
      {
        "studyid": "TEST-STUDY",
        "usubjid": "05-032",
        "vstestcd": "DIABP",
        "vsorres": "90",
        "vsdtc": "02/07/2012"
      },
      {
        "studyid": "TEST-STUDY",
        "usubjid": "01-032",
        "vstestcd": "DIABP",
        "vsorres": "104",
        "vsdtc": "02/07/2012"
      },
      {
        "studyid": "TEST-STUDY",
        "usubjid": "01-033",
        "vstestcd": "DIABP",
        "vsorres": "71",
        "vsdtc": "09/07/2012"
      },
      {
        "studyid": "TEST-STUDY",
        "usubjid": "10-009",
        "vstestcd": "DIABP",
        "vsorres": "66",
        "vsdtc": "28/06/2012"
      },
      {
        "studyid": "TEST-STUDY",
        "usubjid": "10-010",
        "vstestcd": "DIABP",
        "vsorres": "61",
        "vsdtc": "04/07/2012"
      },
      {
        "studyid": "TEST-STUDY",
        "usubjid": "02-058",
        "vstestcd": "DIABP",
        "vsorres": "",
        "vsdtc": "05/07/2012"
      },
      {
        "studyid": "TEST-STUDY",
        "usubjid": "14-017",
        "vstestcd": "DIABP",
        "vsorres": "73",
        "vsdtc": "17/08/2012"
      },
      {
        "studyid": "TEST-STUDY",
        "usubjid": "02-059",
        "vstestcd": "DIABP",
        "vsorres": "",
        "vsdtc": "10/07/2012"
      },
      {
        "studyid": "TEST-STUDY",
        "usubjid": "04-044",
        "vstestcd": "DIABP",
        "vsorres": "73",
        "vsdtc": "10/07/2012"
      },
      {
        "studyid": "TEST-STUDY",
        "usubjid": "10-011",
        "vstestcd": "DIABP",
        "vsorres": "54",
        "vsdtc": "09/07/2012"
      },
      {
        "studyid": "TEST-STUDY",
        "usubjid": "08-017",
        "vstestcd": "DIABP",
        "vsorres": "",
        "vsdtc": "10/07/2012"
      },
      {
        "studyid": "TEST-STUDY",
        "usubjid": "02-061",
        "vstestcd": "DIABP",
        "vsorres": "",
        "vsdtc": "11/07/2012"
      },
      {
        "studyid": "TEST-STUDY",
        "usubjid": "11-024",
        "vstestcd": "DIABP",
        "vsorres": "78",
        "vsdtc": "17/07/2012"
      },
      {
        "studyid": "TEST-STUDY",
        "usubjid": "04-045",
        "vstestcd": "DIABP",
        "vsorres": "68",
        "vsdtc": "13/07/2012"
      },
      {
        "studyid": "TEST-STUDY",
        "usubjid": "02-062",
        "vstestcd": "DIABP",
        "vsorres": "",
        "vsdtc": "16/07/2012"
      },
      {
        "studyid": "TEST-STUDY",
        "usubjid": "01-035",
        "vstestcd": "DIABP",
        "vsorres": "80",
        "vsdtc": "17/07/2012"
      },
      {
        "studyid": "TEST-STUDY",
        "usubjid": "04-046",
        "vstestcd": "DIABP",
        "vsorres": "",
        "vsdtc": "17/07/2012"
      },
      {
        "studyid": "TEST-STUDY",
        "usubjid": "14-018",
        "vstestcd": "DIABP",
        "vsorres": "80",
        "vsdtc": "30/07/2012"
      },
      {
        "studyid": "TEST-STUDY",
        "usubjid": "02-063",
        "vstestcd": "DIABP",
        "vsorres": "",
        "vsdtc": "18/07/2012"
      },
      {
        "studyid": "TEST-STUDY",
        "usubjid": "02-064",
        "vstestcd": "DIABP",
        "vsorres": "78",
        "vsdtc": "20/03/2013"
      },
      {
        "studyid": "TEST-STUDY",
        "usubjid": "03-017",
        "vstestcd": "DIABP",
        "vsorres": "81",
        "vsdtc": "19/07/2012"
      },
      {
        "studyid": "TEST-STUDY",
        "usubjid": "14-019",
        "vstestcd": "DIABP",
        "vsorres": "71",
        "vsdtc": "06/08/2012"
      },
      {
        "studyid": "TEST-STUDY",
        "usubjid": "10-012",
        "vstestcd": "DIABP",
        "vsorres": "85",
        "vsdtc": "18/07/2012"
      },
      {
        "studyid": "TEST-STUDY",
        "usubjid": "10-013",
        "vstestcd": "DIABP",
        "vsorres": "77",
        "vsdtc": "19/07/2012"
      },
      {
        "studyid": "TEST-STUDY",
        "usubjid": "02-065",
        "vstestcd": "DIABP",
        "vsorres": "",
        "vsdtc": "24/07/2012"
      },
      {
        "studyid": "TEST-STUDY",
        "usubjid": "04-047",
        "vstestcd": "DIABP",
        "vsorres": "71",
        "vsdtc": "20/07/2012"
      },
      {
        "studyid": "TEST-STUDY",
        "usubjid": "01-036",
        "vstestcd": "DIABP",
        "vsorres": "65",
        "vsdtc": "23/07/2012"
      },
      {
        "studyid": "TEST-STUDY",
        "usubjid": "03-018",
        "vstestcd": "DIABP",
        "vsorres": "56",
        "vsdtc": "23/07/2012"
      },
      {
        "studyid": "TEST-STUDY",
        "usubjid": "04-048",
        "vstestcd": "DIABP",
        "vsorres": "65",
        "vsdtc": "24/07/2012"
      },
      {
        "studyid": "TEST-STUDY",
        "usubjid": "14-020",
        "vstestcd": "DIABP",
        "vsorres": "70",
        "vsdtc": "20/08/2012"
      },
      {
        "studyid": "TEST-STUDY",
        "usubjid": "02-067",
        "vstestcd": "DIABP",
        "vsorres": "",
        "vsdtc": "25/07/2012"
      },
      {
        "studyid": "TEST-STUDY",
        "usubjid": "02-068",
        "vstestcd": "DIABP",
        "vsorres": "",
        "vsdtc": "25/07/2012"
      },
      {
        "studyid": "TEST-STUDY",
        "usubjid": "03-019",
        "vstestcd": "DIABP",
        "vsorres": "",
        "vsdtc": "25/07/2012"
      },
      {
        "studyid": "TEST-STUDY",
        "usubjid": "04-049",
        "vstestcd": "DIABP",
        "vsorres": "75",
        "vsdtc": "26/07/2012"
      },
      {
        "studyid": "TEST-STUDY",
        "usubjid": "04-050",
        "vstestcd": "DIABP",
        "vsorres": "92",
        "vsdtc": "26/07/2012"
      },
      {
        "studyid": "TEST-STUDY",
        "usubjid": "01-037",
        "vstestcd": "DIABP",
        "vsorres": "",
        "vsdtc": ""
      },
      {
        "studyid": "TEST-STUDY",
        "usubjid": "02-069",
        "vstestcd": "DIABP",
        "vsorres": "70",
        "vsdtc": "30/07/2012"
      },
      {
        "studyid": "TEST-STUDY",
        "usubjid": "04-051",
        "vstestcd": "DIABP",
        "vsorres": "100",
        "vsdtc": "31/07/2012"
      },
      {
        "studyid": "TEST-STUDY",
        "usubjid": "02-070",
        "vstestcd": "DIABP",
        "vsorres": "",
        "vsdtc": "09/08/2012"
      },
      {
        "studyid": "TEST-STUDY",
        "usubjid": "02-071",
        "vstestcd": "DIABP",
        "vsorres": "",
        "vsdtc": "02/08/2012"
      },
      {
        "studyid": "TEST-STUDY",
        "usubjid": "13-028",
        "vstestcd": "DIABP",
        "vsorres": "70",
        "vsdtc": "02/08/2012"
      },
      {
        "studyid": "TEST-STUDY",
        "usubjid": "04-052",
        "vstestcd": "DIABP",
        "vsorres": "",
        "vsdtc": "07/08/2012"
      },
      {
        "studyid": "TEST-STUDY",
        "usubjid": "10-014",
        "vstestcd": "DIABP",
        "vsorres": "68",
        "vsdtc": "03/08/2012"
      },
      {
        "studyid": "TEST-STUDY",
        "usubjid": "10-015",
        "vstestcd": "DIABP",
        "vsorres": "86",
        "vsdtc": "03/09/2012"
      },
      {
        "studyid": "TEST-STUDY",
        "usubjid": "02-073",
        "vstestcd": "DIABP",
        "vsorres": "",
        "vsdtc": "08/08/2012"
      },
      {
        "studyid": "TEST-STUDY",
        "usubjid": "03-020",
        "vstestcd": "DIABP",
        "vsorres": "59",
        "vsdtc": "09/08/2012"
      },
      {
        "studyid": "TEST-STUDY",
        "usubjid": "14-022",
        "vstestcd": "DIABP",
        "vsorres": "84",
        "vsdtc": "11/09/2012"
      },
      {
        "studyid": "TEST-STUDY",
        "usubjid": "04-053",
        "vstestcd": "DIABP",
        "vsorres": "",
        "vsdtc": "10/08/2012"
      },
      {
        "studyid": "TEST-STUDY",
        "usubjid": "04-054",
        "vstestcd": "DIABP",
        "vsorres": "75",
        "vsdtc": "10/08/2012"
      },
      {
        "studyid": "TEST-STUDY",
        "usubjid": "02-074",
        "vstestcd": "DIABP",
        "vsorres": "",
        "vsdtc": "13/08/2012"
      },
      {
        "studyid": "TEST-STUDY",
        "usubjid": "04-055",
        "vstestcd": "DIABP",
        "vsorres": "",
        "vsdtc": "14/08/2012"
      },
      {
        "studyid": "TEST-STUDY",
        "usubjid": "14-023",
        "vstestcd": "DIABP",
        "vsorres": "76",
        "vsdtc": "10/09/2012"
      },
      {
        "studyid": "TEST-STUDY",
        "usubjid": "02-076",
        "vstestcd": "DIABP",
        "vsorres": "",
        "vsdtc": ""
      },
      {
        "studyid": "TEST-STUDY",
        "usubjid": "02-077",
        "vstestcd": "DIABP",
        "vsorres": "76",
        "vsdtc": "08/01/2013"
      },
      {
        "studyid": "TEST-STUDY",
        "usubjid": "04-056",
        "vstestcd": "DIABP",
        "vsorres": "76",
        "vsdtc": "16/08/2012"
      },
      {
        "studyid": "TEST-STUDY",
        "usubjid": "04-057",
        "vstestcd": "DIABP",
        "vsorres": "64",
        "vsdtc": "17/08/2012"
      },
      {
        "studyid": "TEST-STUDY",
        "usubjid": "04-058",
        "vstestcd": "DIABP",
        "vsorres": "",
        "vsdtc": "17/08/2012"
      },
      {
        "studyid": "TEST-STUDY",
        "usubjid": "02-078",
        "vstestcd": "DIABP",
        "vsorres": "",
        "vsdtc": "23/08/2012"
      },
      {
        "studyid": "TEST-STUDY",
        "usubjid": "04-059",
        "vstestcd": "DIABP",
        "vsorres": "63",
        "vsdtc": "21/08/2012"
      },
      {
        "studyid": "TEST-STUDY",
        "usubjid": "03-023",
        "vstestcd": "DIABP",
        "vsorres": "71",
        "vsdtc": "05/09/2012"
      },
      {
        "studyid": "TEST-STUDY",
        "usubjid": "03-024",
        "vstestcd": "DIABP",
        "vsorres": "",
        "vsdtc": "23/08/2012"
      },
      {
        "studyid": "TEST-STUDY",
        "usubjid": "04-060",
        "vstestcd": "DIABP",
        "vsorres": "73",
        "vsdtc": "23/08/2012"
      },
      {
        "studyid": "TEST-STUDY",
        "usubjid": "08-018",
        "vstestcd": "DIABP",
        "vsorres": "70",
        "vsdtc": "28/08/2012"
      },
      {
        "studyid": "TEST-STUDY",
        "usubjid": "10-016",
        "vstestcd": "DIABP",
        "vsorres": "77",
        "vsdtc": "27/08/2012"
      },
      {
        "studyid": "TEST-STUDY",
        "usubjid": "06-010",
        "vstestcd": "DIABP",
        "vsorres": "",
        "vsdtc": "28/08/2012"
      },
      {
        "studyid": "TEST-STUDY",
        "usubjid": "02-079",
        "vstestcd": "DIABP",
        "vsorres": "",
        "vsdtc": "29/08/2012"
      },
      {
        "studyid": "TEST-STUDY",
        "usubjid": "03-026",
        "vstestcd": "DIABP",
        "vsorres": "",
        "vsdtc": "29/08/2012"
      },
      {
        "studyid": "TEST-STUDY",
        "usubjid": "06-011",
        "vstestcd": "DIABP",
        "vsorres": "",
        "vsdtc": "30/08/2012"
      },
      {
        "studyid": "TEST-STUDY",
        "usubjid": "04-061",
        "vstestcd": "DIABP",
        "vsorres": "68",
        "vsdtc": "31/08/2012"
      },
      {
        "studyid": "TEST-STUDY",
        "usubjid": "14-024",
        "vstestcd": "DIABP",
        "vsorres": "81",
        "vsdtc": "14/09/2012"
      },
      {
        "studyid": "TEST-STUDY",
        "usubjid": "05-033",
        "vstestcd": "DIABP",
        "vsorres": "",
        "vsdtc": "03/09/2012"
      },
      {
        "studyid": "TEST-STUDY",
        "usubjid": "14-025",
        "vstestcd": "DIABP",
        "vsorres": "69",
        "vsdtc": "01/10/2012"
      },
      {
        "studyid": "TEST-STUDY",
        "usubjid": "06-012",
        "vstestcd": "DIABP",
        "vsorres": "",
        "vsdtc": "03/09/2012"
      },
      {
        "studyid": "TEST-STUDY",
        "usubjid": "06-013",
        "vstestcd": "DIABP",
        "vsorres": "",
        "vsdtc": "04/09/2012"
      },
      {
        "studyid": "TEST-STUDY",
        "usubjid": "09-020",
        "vstestcd": "DIABP",
        "vsorres": "",
        "vsdtc": "10/09/2012"
      },
      {
        "studyid": "TEST-STUDY",
        "usubjid": "04-062",
        "vstestcd": "DIABP",
        "vsorres": "84",
        "vsdtc": "07/09/2012"
      },
      {
        "studyid": "TEST-STUDY",
        "usubjid": "04-063",
        "vstestcd": "DIABP",
        "vsorres": "59",
        "vsdtc": "11/09/2012"
      },
      {
        "studyid": "TEST-STUDY",
        "usubjid": "04-064",
        "vstestcd": "DIABP",
        "vsorres": "",
        "vsdtc": "11/09/2012"
      },
      {
        "studyid": "TEST-STUDY",
        "usubjid": "06-014",
        "vstestcd": "DIABP",
        "vsorres": "",
        "vsdtc": "11/09/2012"
      },
      {
        "studyid": "TEST-STUDY",
        "usubjid": "02-080",
        "vstestcd": "DIABP",
        "vsorres": "",
        "vsdtc": "12/09/2012"
      },
      {
        "studyid": "TEST-STUDY",
        "usubjid": "02-081",
        "vstestcd": "DIABP",
        "vsorres": "",
        "vsdtc": "12/09/2012"
      },
      {
        "studyid": "TEST-STUDY",
        "usubjid": "04-065",
        "vstestcd": "DIABP",
        "vsorres": "92",
        "vsdtc": "13/09/2012"
      },
      {
        "studyid": "TEST-STUDY",
        "usubjid": "04-066",
        "vstestcd": "DIABP",
        "vsorres": "",
        "vsdtc": "13/09/2012"
      },
      {
        "studyid": "TEST-STUDY",
        "usubjid": "02-082",
        "vstestcd": "DIABP",
        "vsorres": "",
        "vsdtc": "13/09/2012"
      },
      {
        "studyid": "TEST-STUDY",
        "usubjid": "04-067",
        "vstestcd": "DIABP",
        "vsorres": "72",
        "vsdtc": "14/09/2012"
      },
      {
        "studyid": "TEST-STUDY",
        "usubjid": "03-029",
        "vstestcd": "DIABP",
        "vsorres": "",
        "vsdtc": "17/09/2012"
      },
      {
        "studyid": "TEST-STUDY",
        "usubjid": "02-083",
        "vstestcd": "DIABP",
        "vsorres": "78",
        "vsdtc": "21/03/2013"
      },
      {
        "studyid": "TEST-STUDY",
        "usubjid": "06-015",
        "vstestcd": "DIABP",
        "vsorres": "",
        "vsdtc": "18/09/2012"
      },
      {
        "studyid": "TEST-STUDY",
        "usubjid": "03-030",
        "vstestcd": "DIABP",
        "vsorres": "",
        "vsdtc": "18/09/2012"
      },
      {
        "studyid": "TEST-STUDY",
        "usubjid": "02-084",
        "vstestcd": "DIABP",
        "vsorres": "",
        "vsdtc": "19/09/2012"
      },
      {
        "studyid": "TEST-STUDY",
        "usubjid": "03-031",
        "vstestcd": "DIABP",
        "vsorres": "",
        "vsdtc": "19/09/2012"
      },
      {
        "studyid": "TEST-STUDY",
        "usubjid": "15-003",
        "vstestcd": "DIABP",
        "vsorres": "78",
        "vsdtc": "19/09/2012"
      },
      {
        "studyid": "TEST-STUDY",
        "usubjid": "03-032",
        "vstestcd": "DIABP",
        "vsorres": "78",
        "vsdtc": "25/10/2012"
      },
      {
        "studyid": "TEST-STUDY",
        "usubjid": "10-017",
        "vstestcd": "DIABP",
        "vsorres": "78",
        "vsdtc": "17/09/2012"
      },
      {
        "studyid": "TEST-STUDY",
        "usubjid": "01-038",
        "vstestcd": "DIABP",
        "vsorres": "95",
        "vsdtc": "21/09/2012"
      },
      {
        "studyid": "TEST-STUDY",
        "usubjid": "04-068",
        "vstestcd": "DIABP",
        "vsorres": "79",
        "vsdtc": "21/09/2012"
      },
      {
        "studyid": "TEST-STUDY",
        "usubjid": "02-086",
        "vstestcd": "DIABP",
        "vsorres": "",
        "vsdtc": "21/09/2012"
      },
      {
        "studyid": "TEST-STUDY",
        "usubjid": "09-021",
        "vstestcd": "DIABP",
        "vsorres": "",
        "vsdtc": "24/09/2012"
      },
      {
        "studyid": "TEST-STUDY",
        "usubjid": "15-004",
        "vstestcd": "DIABP",
        "vsorres": "81",
        "vsdtc": "04/10/2012"
      },
      {
        "studyid": "TEST-STUDY",
        "usubjid": "14-027",
        "vstestcd": "DIABP",
        "vsorres": "100",
        "vsdtc": "12/10/2012"
      },
      {
        "studyid": "TEST-STUDY",
        "usubjid": "13-029",
        "vstestcd": "DIABP",
        "vsorres": "65",
        "vsdtc": "08/10/2012"
      },
      {
        "studyid": "TEST-STUDY",
        "usubjid": "04-069",
        "vstestcd": "DIABP",
        "vsorres": "88",
        "vsdtc": "25/09/2012"
      },
      {
        "studyid": "TEST-STUDY",
        "usubjid": "04-070",
        "vstestcd": "DIABP",
        "vsorres": "",
        "vsdtc": "25/09/2012"
      },
      {
        "studyid": "TEST-STUDY",
        "usubjid": "09-022",
        "vstestcd": "DIABP",
        "vsorres": "",
        "vsdtc": "01/10/2012"
      },
      {
        "studyid": "TEST-STUDY",
        "usubjid": "02-087",
        "vstestcd": "DIABP",
        "vsorres": "",
        "vsdtc": "25/09/2012"
      },
      {
        "studyid": "TEST-STUDY",
        "usubjid": "02-088",
        "vstestcd": "DIABP",
        "vsorres": "",
        "vsdtc": "10/10/2012"
      },
      {
        "studyid": "TEST-STUDY",
        "usubjid": "14-028",
        "vstestcd": "DIABP",
        "vsorres": "79",
        "vsdtc": "10/12/2012"
      },
      {
        "studyid": "TEST-STUDY",
        "usubjid": "04-071",
        "vstestcd": "DIABP",
        "vsorres": "",
        "vsdtc": "27/09/2012"
      },
      {
        "studyid": "TEST-STUDY",
        "usubjid": "04-072",
        "vstestcd": "DIABP",
        "vsorres": "63",
        "vsdtc": "27/09/2012"
      },
      {
        "studyid": "TEST-STUDY",
        "usubjid": "02-089",
        "vstestcd": "DIABP",
        "vsorres": "",
        "vsdtc": "27/09/2012"
      },
      {
        "studyid": "TEST-STUDY",
        "usubjid": "03-033",
        "vstestcd": "DIABP",
        "vsorres": "",
        "vsdtc": "27/09/2012"
      },
      {
        "studyid": "TEST-STUDY",
        "usubjid": "05-034",
        "vstestcd": "DIABP",
        "vsorres": "",
        "vsdtc": ""
      },
      {
        "studyid": "TEST-STUDY",
        "usubjid": "05-035",
        "vstestcd": "DIABP",
        "vsorres": "60",
        "vsdtc": "01/10/2012"
      },
      {
        "studyid": "TEST-STUDY",
        "usubjid": "02-090",
        "vstestcd": "DIABP",
        "vsorres": "",
        "vsdtc": "26/11/2012"
      },
      {
        "studyid": "TEST-STUDY",
        "usubjid": "14-029",
        "vstestcd": "DIABP",
        "vsorres": "74",
        "vsdtc": "16/10/2012"
      },
      {
        "studyid": "TEST-STUDY",
        "usubjid": "15-005",
        "vstestcd": "DIABP",
        "vsorres": "65",
        "vsdtc": "24/10/2012"
      },
      {
        "studyid": "TEST-STUDY",
        "usubjid": "09-023",
        "vstestcd": "DIABP",
        "vsorres": "",
        "vsdtc": "08/10/2012"
      },
      {
        "studyid": "TEST-STUDY",
        "usubjid": "14-030",
        "vstestcd": "DIABP",
        "vsorres": "87",
        "vsdtc": "29/10/2012"
      },
      {
        "studyid": "TEST-STUDY",
        "usubjid": "04-073",
        "vstestcd": "DIABP",
        "vsorres": "75",
        "vsdtc": "04/10/2012"
      },
      {
        "studyid": "TEST-STUDY",
        "usubjid": "05-036",
        "vstestcd": "DIABP",
        "vsorres": "",
        "vsdtc": "05/10/2012"
      },
      {
        "studyid": "TEST-STUDY",
        "usubjid": "05-037",
        "vstestcd": "DIABP",
        "vsorres": "70",
        "vsdtc": "05/10/2012"
      },
      {
        "studyid": "TEST-STUDY",
        "usubjid": "04-074",
        "vstestcd": "DIABP",
        "vsorres": "67",
        "vsdtc": "05/10/2012"
      },
      {
        "studyid": "TEST-STUDY",
        "usubjid": "05-038",
        "vstestcd": "DIABP",
        "vsorres": "60",
        "vsdtc": "08/10/2012"
      },
      {
        "studyid": "TEST-STUDY",
        "usubjid": "10-018",
        "vstestcd": "DIABP",
        "vsorres": "86",
        "vsdtc": "02/10/2012"
      },
      {
        "studyid": "TEST-STUDY",
        "usubjid": "02-091",
        "vstestcd": "DIABP",
        "vsorres": "",
        "vsdtc": "30/10/2012"
      },
      {
        "studyid": "TEST-STUDY",
        "usubjid": "14-031",
        "vstestcd": "DIABP",
        "vsorres": "109",
        "vsdtc": "06/11/2012"
      },
      {
        "studyid": "TEST-STUDY",
        "usubjid": "02-092",
        "vstestcd": "DIABP",
        "vsorres": "",
        "vsdtc": "09/10/2012"
      },
      {
        "studyid": "TEST-STUDY",
        "usubjid": "03-034",
        "vstestcd": "DIABP",
        "vsorres": "",
        "vsdtc": "10/10/2012"
      },
      {
        "studyid": "TEST-STUDY",
        "usubjid": "04-075",
        "vstestcd": "DIABP",
        "vsorres": "",
        "vsdtc": "11/10/2012"
      },
      {
        "studyid": "TEST-STUDY",
        "usubjid": "10-019",
        "vstestcd": "DIABP",
        "vsorres": "75",
        "vsdtc": "09/10/2012"
      },
      {
        "studyid": "TEST-STUDY",
        "usubjid": "05-039",
        "vstestcd": "DIABP",
        "vsorres": "70",
        "vsdtc": "11/10/2012"
      },
      {
        "studyid": "TEST-STUDY",
        "usubjid": "08-019",
        "vstestcd": "DIABP",
        "vsorres": "",
        "vsdtc": "13/10/2012"
      },
      {
        "studyid": "TEST-STUDY",
        "usubjid": "05-040",
        "vstestcd": "DIABP",
        "vsorres": "85",
        "vsdtc": "15/10/2012"
      },
      {
        "studyid": "TEST-STUDY",
        "usubjid": "10-020",
        "vstestcd": "DIABP",
        "vsorres": "73",
        "vsdtc": "11/10/2012"
      },
      {
        "studyid": "TEST-STUDY",
        "usubjid": "03-035",
        "vstestcd": "DIABP",
        "vsorres": "74",
        "vsdtc": "29/10/2012"
      },
      {
        "studyid": "TEST-STUDY",
        "usubjid": "07-029",
        "vstestcd": "DIABP",
        "vsorres": "90",
        "vsdtc": "17/10/2012"
      },
      {
        "studyid": "TEST-STUDY",
        "usubjid": "02-096",
        "vstestcd": "DIABP",
        "vsorres": "",
        "vsdtc": ""
      },
      {
        "studyid": "TEST-STUDY",
        "usubjid": "04-076",
        "vstestcd": "DIABP",
        "vsorres": "61",
        "vsdtc": "18/10/2012"
      },
      {
        "studyid": "TEST-STUDY",
        "usubjid": "03-036",
        "vstestcd": "DIABP",
        "vsorres": "81",
        "vsdtc": "18/10/2012"
      },
      {
        "studyid": "TEST-STUDY",
        "usubjid": "04-077",
        "vstestcd": "DIABP",
        "vsorres": "78",
        "vsdtc": "19/10/2012"
      },
      {
        "studyid": "TEST-STUDY",
        "usubjid": "10-021",
        "vstestcd": "DIABP",
        "vsorres": "84",
        "vsdtc": "19/10/2012"
      },
      {
        "studyid": "TEST-STUDY",
        "usubjid": "03-037",
        "vstestcd": "DIABP",
        "vsorres": "",
        "vsdtc": "19/10/2012"
      },
      {
        "studyid": "TEST-STUDY",
        "usubjid": "04-078",
        "vstestcd": "DIABP",
        "vsorres": "",
        "vsdtc": "23/10/2012"
      },
      {
        "studyid": "TEST-STUDY",
        "usubjid": "10-022",
        "vstestcd": "DIABP",
        "vsorres": "65",
        "vsdtc": "22/10/2012"
      },
      {
        "studyid": "TEST-STUDY",
        "usubjid": "02-098",
        "vstestcd": "DIABP",
        "vsorres": "",
        "vsdtc": "24/10/2012"
      },
      {
        "studyid": "TEST-STUDY",
        "usubjid": "02-099",
        "vstestcd": "DIABP",
        "vsorres": "",
        "vsdtc": "24/10/2012"
      },
      {
        "studyid": "TEST-STUDY",
        "usubjid": "10-023",
        "vstestcd": "DIABP",
        "vsorres": "80",
        "vsdtc": "23/10/2012"
      },
      {
        "studyid": "TEST-STUDY",
        "usubjid": "10-024",
        "vstestcd": "DIABP",
        "vsorres": "68",
        "vsdtc": "24/10/2012"
      },
      {
        "studyid": "TEST-STUDY",
        "usubjid": "04-079",
        "vstestcd": "DIABP",
        "vsorres": "75",
        "vsdtc": "25/10/2012"
      },
      {
        "studyid": "TEST-STUDY",
        "usubjid": "02-100",
        "vstestcd": "DIABP",
        "vsorres": "",
        "vsdtc": "25/10/2012"
      },
      {
        "studyid": "TEST-STUDY",
        "usubjid": "10-025",
        "vstestcd": "DIABP",
        "vsorres": "62",
        "vsdtc": "25/10/2012"
      },
      {
        "studyid": "TEST-STUDY",
        "usubjid": "05-041",
        "vstestcd": "DIABP",
        "vsorres": "",
        "vsdtc": "26/10/2012"
      },
      {
        "studyid": "TEST-STUDY",
        "usubjid": "04-080",
        "vstestcd": "DIABP",
        "vsorres": "62",
        "vsdtc": "26/10/2012"
      },
      {
        "studyid": "TEST-STUDY",
        "usubjid": "04-081",
        "vstestcd": "DIABP",
        "vsorres": "85",
        "vsdtc": "26/10/2012"
      },
      {
        "studyid": "TEST-STUDY",
        "usubjid": "05-042",
        "vstestcd": "DIABP",
        "vsorres": "",
        "vsdtc": "29/10/2012"
      },
      {
        "studyid": "TEST-STUDY",
        "usubjid": "02-101",
        "vstestcd": "DIABP",
        "vsorres": "",
        "vsdtc": "29/10/2012"
      },
      {
        "studyid": "TEST-STUDY",
        "usubjid": "04-082",
        "vstestcd": "DIABP",
        "vsorres": "78",
        "vsdtc": "30/10/2012"
      },
      {
        "studyid": "TEST-STUDY",
        "usubjid": "03-040",
        "vstestcd": "DIABP",
        "vsorres": "94",
        "vsdtc": "30/10/2012"
      },
      {
        "studyid": "TEST-STUDY",
        "usubjid": "02-102",
        "vstestcd": "DIABP",
        "vsorres": "",
        "vsdtc": "31/10/2012"
      },
      {
        "studyid": "TEST-STUDY",
        "usubjid": "14-033",
        "vstestcd": "DIABP",
        "vsorres": "81",
        "vsdtc": "21/02/2013"
      },
      {
        "studyid": "TEST-STUDY",
        "usubjid": "03-041",
        "vstestcd": "DIABP",
        "vsorres": "",
        "vsdtc": "01/11/2012"
      },
      {
        "studyid": "TEST-STUDY",
        "usubjid": "03-042",
        "vstestcd": "DIABP",
        "vsorres": "",
        "vsdtc": "02/11/2012"
      },
      {
        "studyid": "TEST-STUDY",
        "usubjid": "02-103",
        "vstestcd": "DIABP",
        "vsorres": "",
        "vsdtc": "05/11/2012"
      },
      {
        "studyid": "TEST-STUDY",
        "usubjid": "02-104",
        "vstestcd": "DIABP",
        "vsorres": "",
        "vsdtc": "05/11/2012"
      },
      {
        "studyid": "TEST-STUDY",
        "usubjid": "14-034",
        "vstestcd": "DIABP",
        "vsorres": "73",
        "vsdtc": "03/04/2013"
      },
      {
        "studyid": "TEST-STUDY",
        "usubjid": "02-105",
        "vstestcd": "DIABP",
        "vsorres": "",
        "vsdtc": "12/11/2012"
      },
      {
        "studyid": "TEST-STUDY",
        "usubjid": "03-043",
        "vstestcd": "DIABP",
        "vsorres": "",
        "vsdtc": "19/11/2012"
      },
      {
        "studyid": "TEST-STUDY",
        "usubjid": "15-006",
        "vstestcd": "DIABP",
        "vsorres": "92",
        "vsdtc": "06/11/2012"
      },
      {
        "studyid": "TEST-STUDY",
        "usubjid": "02-106",
        "vstestcd": "DIABP",
        "vsorres": "",
        "vsdtc": "06/11/2012"
      },
      {
        "studyid": "TEST-STUDY",
        "usubjid": "04-083",
        "vstestcd": "DIABP",
        "vsorres": "81",
        "vsdtc": "08/11/2012"
      },
      {
        "studyid": "TEST-STUDY",
        "usubjid": "04-084",
        "vstestcd": "DIABP",
        "vsorres": "63",
        "vsdtc": "08/11/2012"
      },
      {
        "studyid": "TEST-STUDY",
        "usubjid": "02-107",
        "vstestcd": "DIABP",
        "vsorres": "",
        "vsdtc": "16/11/2012"
      },
      {
        "studyid": "TEST-STUDY",
        "usubjid": "02-108",
        "vstestcd": "DIABP",
        "vsorres": "",
        "vsdtc": "09/11/2012"
      },
      {
        "studyid": "TEST-STUDY",
        "usubjid": "01-039",
        "vstestcd": "DIABP",
        "vsorres": "91",
        "vsdtc": "12/11/2012"
      },
      {
        "studyid": "TEST-STUDY",
        "usubjid": "05-043",
        "vstestcd": "DIABP",
        "vsorres": "85",
        "vsdtc": "16/11/2012"
      },
      {
        "studyid": "TEST-STUDY",
        "usubjid": "14-035",
        "vstestcd": "DIABP",
        "vsorres": "82",
        "vsdtc": "13/12/2012"
      },
      {
        "studyid": "TEST-STUDY",
        "usubjid": "02-109",
        "vstestcd": "DIABP",
        "vsorres": "",
        "vsdtc": "12/11/2012"
      },
      {
        "studyid": "TEST-STUDY",
        "usubjid": "14-036",
        "vstestcd": "DIABP",
        "vsorres": "74",
        "vsdtc": "11/12/2012"
      },
      {
        "studyid": "TEST-STUDY",
        "usubjid": "09-024",
        "vstestcd": "DIABP",
        "vsorres": "",
        "vsdtc": "28/01/2013"
      },
      {
        "studyid": "TEST-STUDY",
        "usubjid": "03-046",
        "vstestcd": "DIABP",
        "vsorres": "",
        "vsdtc": "12/11/2012"
      },
      {
        "studyid": "TEST-STUDY",
        "usubjid": "04-085",
        "vstestcd": "DIABP",
        "vsorres": "",
        "vsdtc": "13/11/2012"
      },
      {
        "studyid": "TEST-STUDY",
        "usubjid": "10-026",
        "vstestcd": "DIABP",
        "vsorres": "79",
        "vsdtc": "13/11/2012"
      },
      {
        "studyid": "TEST-STUDY",
        "usubjid": "06-016",
        "vstestcd": "DIABP",
        "vsorres": "",
        "vsdtc": "13/11/2012"
      },
      {
        "studyid": "TEST-STUDY",
        "usubjid": "01-040",
        "vstestcd": "DIABP",
        "vsorres": "77",
        "vsdtc": "14/11/2012"
      },
      {
        "studyid": "TEST-STUDY",
        "usubjid": "01-041",
        "vstestcd": "DIABP",
        "vsorres": "70",
        "vsdtc": "15/11/2012"
      },
      {
        "studyid": "TEST-STUDY",
        "usubjid": "04-086",
        "vstestcd": "DIABP",
        "vsorres": "78",
        "vsdtc": "15/11/2012"
      },
      {
        "studyid": "TEST-STUDY",
        "usubjid": "02-110",
        "vstestcd": "DIABP",
        "vsorres": "",
        "vsdtc": "15/11/2012"
      },
      {
        "studyid": "TEST-STUDY",
        "usubjid": "04-087",
        "vstestcd": "DIABP",
        "vsorres": "70",
        "vsdtc": "16/11/2012"
      },
      {
        "studyid": "TEST-STUDY",
        "usubjid": "02-111",
        "vstestcd": "DIABP",
        "vsorres": "",
        "vsdtc": "19/11/2012"
      },
      {
        "studyid": "TEST-STUDY",
        "usubjid": "05-044",
        "vstestcd": "DIABP",
        "vsorres": "80",
        "vsdtc": "19/11/2012"
      },
      {
        "studyid": "TEST-STUDY",
        "usubjid": "01-042",
        "vstestcd": "DIABP",
        "vsorres": "74",
        "vsdtc": "20/11/2012"
      },
      {
        "studyid": "TEST-STUDY",
        "usubjid": "02-113",
        "vstestcd": "DIABP",
        "vsorres": "",
        "vsdtc": "20/11/2012"
      },
      {
        "studyid": "TEST-STUDY",
        "usubjid": "02-114",
        "vstestcd": "DIABP",
        "vsorres": "",
        "vsdtc": "27/11/2012"
      },
      {
        "studyid": "TEST-STUDY",
        "usubjid": "04-088",
        "vstestcd": "DIABP",
        "vsorres": "86",
        "vsdtc": "22/11/2012"
      },
      {
        "studyid": "TEST-STUDY",
        "usubjid": "04-089",
        "vstestcd": "DIABP",
        "vsorres": "",
        "vsdtc": "22/11/2012"
      },
      {
        "studyid": "TEST-STUDY",
        "usubjid": "04-090",
        "vstestcd": "DIABP",
        "vsorres": "75",
        "vsdtc": "23/11/2012"
      },
      {
        "studyid": "TEST-STUDY",
        "usubjid": "03-049",
        "vstestcd": "DIABP",
        "vsorres": "88",
        "vsdtc": "23/11/2012"
      },
      {
        "studyid": "TEST-STUDY",
        "usubjid": "04-091",
        "vstestcd": "DIABP",
        "vsorres": "",
        "vsdtc": "27/11/2012"
      },
      {
        "studyid": "TEST-STUDY",
        "usubjid": "10-027",
        "vstestcd": "DIABP",
        "vsorres": "75",
        "vsdtc": "27/11/2012"
      },
      {
        "studyid": "TEST-STUDY",
        "usubjid": "03-050",
        "vstestcd": "DIABP",
        "vsorres": "",
        "vsdtc": "29/11/2012"
      },
      {
        "studyid": "TEST-STUDY",
        "usubjid": "02-115",
        "vstestcd": "DIABP",
        "vsorres": "89",
        "vsdtc": "29/11/2012"
      },
      {
        "studyid": "TEST-STUDY",
        "usubjid": "04-092",
        "vstestcd": "DIABP",
        "vsorres": "",
        "vsdtc": "29/11/2012"
      },
      {
        "studyid": "TEST-STUDY",
        "usubjid": "04-093",
        "vstestcd": "DIABP",
        "vsorres": "85",
        "vsdtc": "29/11/2012"
      },
      {
        "studyid": "TEST-STUDY",
        "usubjid": "01-043",
        "vstestcd": "DIABP",
        "vsorres": "70",
        "vsdtc": "30/11/2012"
      },
      {
        "studyid": "TEST-STUDY",
        "usubjid": "04-094",
        "vstestcd": "DIABP",
        "vsorres": "69",
        "vsdtc": "30/11/2012"
      },
      {
        "studyid": "TEST-STUDY",
        "usubjid": "02-116",
        "vstestcd": "DIABP",
        "vsorres": "",
        "vsdtc": "04/01/2013"
      },
      {
        "studyid": "TEST-STUDY",
        "usubjid": "02-117",
        "vstestcd": "DIABP",
        "vsorres": "",
        "vsdtc": "15/01/2013"
      },
      {
        "studyid": "TEST-STUDY",
        "usubjid": "03-052",
        "vstestcd": "DIABP",
        "vsorres": "73",
        "vsdtc": "03/12/2012"
      },
      {
        "studyid": "TEST-STUDY",
        "usubjid": "02-118",
        "vstestcd": "DIABP",
        "vsorres": "",
        "vsdtc": "04/12/2012"
      },
      {
        "studyid": "TEST-STUDY",
        "usubjid": "14-038",
        "vstestcd": "DIABP",
        "vsorres": "78",
        "vsdtc": "20/12/2012"
      },
      {
        "studyid": "TEST-STUDY",
        "usubjid": "03-053",
        "vstestcd": "DIABP",
        "vsorres": "",
        "vsdtc": "04/01/2013"
      },
      {
        "studyid": "TEST-STUDY",
        "usubjid": "04-095",
        "vstestcd": "DIABP",
        "vsorres": "67",
        "vsdtc": "06/12/2012"
      },
      {
        "studyid": "TEST-STUDY",
        "usubjid": "04-096",
        "vstestcd": "DIABP",
        "vsorres": "",
        "vsdtc": "06/12/2012"
      },
      {
        "studyid": "TEST-STUDY",
        "usubjid": "03-054",
        "vstestcd": "DIABP",
        "vsorres": "",
        "vsdtc": "24/01/2013"
      },
      {
        "studyid": "TEST-STUDY",
        "usubjid": "05-045",
        "vstestcd": "DIABP",
        "vsorres": "70",
        "vsdtc": "07/12/2012"
      },
      {
        "studyid": "TEST-STUDY",
        "usubjid": "04-097",
        "vstestcd": "DIABP",
        "vsorres": "",
        "vsdtc": "07/12/2012"
      },
      {
        "studyid": "TEST-STUDY",
        "usubjid": "02-119",
        "vstestcd": "DIABP",
        "vsorres": "",
        "vsdtc": "10/12/2012"
      },
      {
        "studyid": "TEST-STUDY",
        "usubjid": "04-098",
        "vstestcd": "DIABP",
        "vsorres": "",
        "vsdtc": "11/12/2012"
      },
      {
        "studyid": "TEST-STUDY",
        "usubjid": "08-020",
        "vstestcd": "DIABP",
        "vsorres": "",
        "vsdtc": "11/12/2012"
      },
      {
        "studyid": "TEST-STUDY",
        "usubjid": "02-121",
        "vstestcd": "DIABP",
        "vsorres": "",
        "vsdtc": "02/01/2013"
      },
      {
        "studyid": "TEST-STUDY",
        "usubjid": "03-055",
        "vstestcd": "DIABP",
        "vsorres": "",
        "vsdtc": "12/12/2012"
      },
      {
        "studyid": "TEST-STUDY",
        "usubjid": "04-099",
        "vstestcd": "DIABP",
        "vsorres": "",
        "vsdtc": "13/12/2012"
      },
      {
        "studyid": "TEST-STUDY",
        "usubjid": "04-100",
        "vstestcd": "DIABP",
        "vsorres": "",
        "vsdtc": "14/12/2012"
      },
      {
        "studyid": "TEST-STUDY",
        "usubjid": "10-028",
        "vstestcd": "DIABP",
        "vsorres": "74",
        "vsdtc": "11/12/2012"
      },
      {
        "studyid": "TEST-STUDY",
        "usubjid": "03-057",
        "vstestcd": "DIABP",
        "vsorres": "57",
        "vsdtc": "17/12/2012"
      },
      {
        "studyid": "TEST-STUDY",
        "usubjid": "02-124",
        "vstestcd": "DIABP",
        "vsorres": "",
        "vsdtc": "21/12/2012"
      },
      {
        "studyid": "TEST-STUDY",
        "usubjid": "01-044",
        "vstestcd": "DIABP",
        "vsorres": "75",
        "vsdtc": "28/12/2012"
      },
      {
        "studyid": "TEST-STUDY",
        "usubjid": "02-125",
        "vstestcd": "DIABP",
        "vsorres": "",
        "vsdtc": "02/01/2013"
      },
      {
        "studyid": "TEST-STUDY",
        "usubjid": "10-029",
        "vstestcd": "DIABP",
        "vsorres": "72",
        "vsdtc": "03/01/2013"
      },
      {
        "studyid": "TEST-STUDY",
        "usubjid": "04-101",
        "vstestcd": "DIABP",
        "vsorres": "",
        "vsdtc": "08/01/2013"
      },
      {
        "studyid": "TEST-STUDY",
        "usubjid": "03-059",
        "vstestcd": "DIABP",
        "vsorres": "",
        "vsdtc": ""
      },
      {
        "studyid": "TEST-STUDY",
        "usubjid": "13-031",
        "vstestcd": "DIABP",
        "vsorres": "81",
        "vsdtc": "14/01/2013"
      },
      {
        "studyid": "TEST-STUDY",
        "usubjid": "01-045",
        "vstestcd": "DIABP",
        "vsorres": "78",
        "vsdtc": "11/02/2013"
      },
      {
        "studyid": "TEST-STUDY",
        "usubjid": "14-039",
        "vstestcd": "DIABP",
        "vsorres": "59",
        "vsdtc": "07/02/2013"
      },
      {
        "studyid": "TEST-STUDY",
        "usubjid": "09-025",
        "vstestcd": "DIABP",
        "vsorres": "80",
        "vsdtc": "05/02/2013"
      },
      {
        "studyid": "TEST-STUDY",
        "usubjid": "03-060",
        "vstestcd": "DIABP",
        "vsorres": "",
        "vsdtc": "16/01/2013"
      },
      {
        "studyid": "TEST-STUDY",
        "usubjid": "10-030",
        "vstestcd": "DIABP",
        "vsorres": "102",
        "vsdtc": "17/01/2013"
      },
      {
        "studyid": "TEST-STUDY",
        "usubjid": "04-102",
        "vstestcd": "DIABP",
        "vsorres": "85",
        "vsdtc": "18/01/2013"
      },
      {
        "studyid": "TEST-STUDY",
        "usubjid": "09-026",
        "vstestcd": "DIABP",
        "vsorres": "95",
        "vsdtc": "07/02/2013"
      },
      {
        "studyid": "TEST-STUDY",
        "usubjid": "09-027",
        "vstestcd": "DIABP",
        "vsorres": "90",
        "vsdtc": "25/01/2013"
      },
      {
        "studyid": "TEST-STUDY",
        "usubjid": "03-061",
        "vstestcd": "DIABP",
        "vsorres": "",
        "vsdtc": ""
      },
      {
        "studyid": "TEST-STUDY",
        "usubjid": "02-126",
        "vstestcd": "DIABP",
        "vsorres": "",
        "vsdtc": "22/01/2013"
      },
      {
        "studyid": "TEST-STUDY",
        "usubjid": "03-063",
        "vstestcd": "DIABP",
        "vsorres": "",
        "vsdtc": "13/02/2013"
      },
      {
        "studyid": "TEST-STUDY",
        "usubjid": "04-103",
        "vstestcd": "DIABP",
        "vsorres": "66",
        "vsdtc": "24/01/2013"
      },
      {
        "studyid": "TEST-STUDY",
        "usubjid": "04-104",
        "vstestcd": "DIABP",
        "vsorres": "",
        "vsdtc": "24/01/2013"
      },
      {
        "studyid": "TEST-STUDY",
        "usubjid": "10-031",
        "vstestcd": "DIABP",
        "vsorres": "100",
        "vsdtc": "24/01/2013"
      },
      {
        "studyid": "TEST-STUDY",
        "usubjid": "12-007",
        "vstestcd": "DIABP",
        "vsorres": "",
        "vsdtc": "29/01/2013"
      },
      {
        "studyid": "TEST-STUDY",
        "usubjid": "04-105",
        "vstestcd": "DIABP",
        "vsorres": "",
        "vsdtc": "29/01/2013"
      },
      {
        "studyid": "TEST-STUDY",
        "usubjid": "02-127",
        "vstestcd": "DIABP",
        "vsorres": "",
        "vsdtc": "19/04/2013"
      },
      {
        "studyid": "TEST-STUDY",
        "usubjid": "14-040",
        "vstestcd": "DIABP",
        "vsorres": "67",
        "vsdtc": "06/02/2013"
      },
      {
        "studyid": "TEST-STUDY",
        "usubjid": "04-106",
        "vstestcd": "DIABP",
        "vsorres": "63",
        "vsdtc": "31/01/2013"
      },
      {
        "studyid": "TEST-STUDY",
        "usubjid": "04-107",
        "vstestcd": "DIABP",
        "vsorres": "",
        "vsdtc": "31/01/2013"
      },
      {
        "studyid": "TEST-STUDY",
        "usubjid": "14-041",
        "vstestcd": "DIABP",
        "vsorres": "71",
        "vsdtc": "23/04/2013"
      },
      {
        "studyid": "TEST-STUDY",
        "usubjid": "04-108",
        "vstestcd": "DIABP",
        "vsorres": "87",
        "vsdtc": "01/02/2013"
      },
      {
        "studyid": "TEST-STUDY",
        "usubjid": "04-109",
        "vstestcd": "DIABP",
        "vsorres": "",
        "vsdtc": "05/02/2013"
      },
      {
        "studyid": "TEST-STUDY",
        "usubjid": "02-128",
        "vstestcd": "DIABP",
        "vsorres": "",
        "vsdtc": "05/02/2013"
      },
      {
        "studyid": "TEST-STUDY",
        "usubjid": "15-007",
        "vstestcd": "DIABP",
        "vsorres": "86",
        "vsdtc": "06/02/2013"
      },
      {
        "studyid": "TEST-STUDY",
        "usubjid": "03-065",
        "vstestcd": "DIABP",
        "vsorres": "",
        "vsdtc": "04/03/2013"
      },
      {
        "studyid": "TEST-STUDY",
        "usubjid": "05-046",
        "vstestcd": "DIABP",
        "vsorres": "60",
        "vsdtc": "07/02/2013"
      },
      {
        "studyid": "TEST-STUDY",
        "usubjid": "04-110",
        "vstestcd": "DIABP",
        "vsorres": "",
        "vsdtc": "07/02/2013"
      },
      {
        "studyid": "TEST-STUDY",
        "usubjid": "04-111",
        "vstestcd": "DIABP",
        "vsorres": "64",
        "vsdtc": "08/02/2013"
      },
      {
        "studyid": "TEST-STUDY",
        "usubjid": "03-066",
        "vstestcd": "DIABP",
        "vsorres": "",
        "vsdtc": "11/02/2013"
      },
      {
        "studyid": "TEST-STUDY",
        "usubjid": "09-028",
        "vstestcd": "DIABP",
        "vsorres": "80",
        "vsdtc": "11/02/2013"
      },
      {
        "studyid": "TEST-STUDY",
        "usubjid": "09-029",
        "vstestcd": "DIABP",
        "vsorres": "68",
        "vsdtc": "20/02/2013"
      },
      {
        "studyid": "TEST-STUDY",
        "usubjid": "15-009",
        "vstestcd": "DIABP",
        "vsorres": "78",
        "vsdtc": "14/02/2013"
      },
      {
        "studyid": "TEST-STUDY",
        "usubjid": "02-129",
        "vstestcd": "DIABP",
        "vsorres": "98",
        "vsdtc": "16/04/2013"
      },
      {
        "studyid": "TEST-STUDY",
        "usubjid": "15-010",
        "vstestcd": "DIABP",
        "vsorres": "65",
        "vsdtc": "20/02/2013"
      },
      {
        "studyid": "TEST-STUDY",
        "usubjid": "15-011",
        "vstestcd": "DIABP",
        "vsorres": "81",
        "vsdtc": "27/02/2013"
      },
      {
        "studyid": "TEST-STUDY",
        "usubjid": "02-131",
        "vstestcd": "DIABP",
        "vsorres": "",
        "vsdtc": "18/02/2013"
      },
      {
        "studyid": "TEST-STUDY",
        "usubjid": "05-047",
        "vstestcd": "DIABP",
        "vsorres": "80",
        "vsdtc": "11/03/2013"
      },
      {
        "studyid": "TEST-STUDY",
        "usubjid": "15-012",
        "vstestcd": "DIABP",
        "vsorres": "89",
        "vsdtc": "13/03/2013"
      },
      {
        "studyid": "TEST-STUDY",
        "usubjid": "06-017",
        "vstestcd": "DIABP",
        "vsorres": "",
        "vsdtc": "18/02/2013"
      },
      {
        "studyid": "TEST-STUDY",
        "usubjid": "04-112",
        "vstestcd": "DIABP",
        "vsorres": "102",
        "vsdtc": "21/02/2013"
      },
      {
        "studyid": "TEST-STUDY",
        "usubjid": "04-113",
        "vstestcd": "DIABP",
        "vsorres": "79",
        "vsdtc": "22/02/2013"
      },
      {
        "studyid": "TEST-STUDY",
        "usubjid": "01-046",
        "vstestcd": "DIABP",
        "vsorres": "105",
        "vsdtc": "22/03/2013"
      },
      {
        "studyid": "TEST-STUDY",
        "usubjid": "04-114",
        "vstestcd": "DIABP",
        "vsorres": "",
        "vsdtc": "26/02/2013"
      },
      {
        "studyid": "TEST-STUDY",
        "usubjid": "15-013",
        "vstestcd": "DIABP",
        "vsorres": "72",
        "vsdtc": "05/03/2013"
      },
      {
        "studyid": "TEST-STUDY",
        "usubjid": "02-132",
        "vstestcd": "DIABP",
        "vsorres": "",
        "vsdtc": "27/02/2013"
      },
      {
        "studyid": "TEST-STUDY",
        "usubjid": "03-070",
        "vstestcd": "DIABP",
        "vsorres": "",
        "vsdtc": "27/02/2013"
      },
      {
        "studyid": "TEST-STUDY",
        "usubjid": "04-115",
        "vstestcd": "DIABP",
        "vsorres": "83",
        "vsdtc": "28/02/2013"
      },
      {
        "studyid": "TEST-STUDY",
        "usubjid": "04-116",
        "vstestcd": "DIABP",
        "vsorres": "",
        "vsdtc": "28/02/2013"
      },
      {
        "studyid": "TEST-STUDY",
        "usubjid": "04-117",
        "vstestcd": "DIABP",
        "vsorres": "67",
        "vsdtc": "01/03/2013"
      },
      {
        "studyid": "TEST-STUDY",
        "usubjid": "01-047",
        "vstestcd": "DIABP",
        "vsorres": "97",
        "vsdtc": "04/03/2013"
      },
      {
        "studyid": "TEST-STUDY",
        "usubjid": "15-014",
        "vstestcd": "DIABP",
        "vsorres": "94",
        "vsdtc": "06/03/2013"
      },
      {
        "studyid": "TEST-STUDY",
        "usubjid": "10-032",
        "vstestcd": "DIABP",
        "vsorres": "56",
        "vsdtc": "04/02/2013"
      },
      {
        "studyid": "TEST-STUDY",
        "usubjid": "10-033",
        "vstestcd": "DIABP",
        "vsorres": "79",
        "vsdtc": "20/02/2013"
      },
      {
        "studyid": "TEST-STUDY",
        "usubjid": "10-034",
        "vstestcd": "DIABP",
        "vsorres": "72",
        "vsdtc": "25/02/2013"
      },
      {
        "studyid": "TEST-STUDY",
        "usubjid": "04-118",
        "vstestcd": "DIABP",
        "vsorres": "",
        "vsdtc": "05/03/2013"
      },
      {
        "studyid": "TEST-STUDY",
        "usubjid": "06-018",
        "vstestcd": "DIABP",
        "vsorres": "70",
        "vsdtc": "05/03/2013"
      },
      {
        "studyid": "TEST-STUDY",
        "usubjid": "02-133",
        "vstestcd": "DIABP",
        "vsorres": "",
        "vsdtc": "23/04/2013"
      },
      {
        "studyid": "TEST-STUDY",
        "usubjid": "13-032",
        "vstestcd": "DIABP",
        "vsorres": "90",
        "vsdtc": "06/03/2013"
      },
      {
        "studyid": "TEST-STUDY",
        "usubjid": "04-119",
        "vstestcd": "DIABP",
        "vsorres": "70",
        "vsdtc": "07/03/2013"
      },
      {
        "studyid": "TEST-STUDY",
        "usubjid": "04-121",
        "vstestcd": "DIABP",
        "vsorres": "56",
        "vsdtc": "08/03/2013"
      },
      {
        "studyid": "TEST-STUDY",
        "usubjid": "04-122",
        "vstestcd": "DIABP",
        "vsorres": "",
        "vsdtc": "08/03/2013"
      },
      {
        "studyid": "TEST-STUDY",
        "usubjid": "02-135",
        "vstestcd": "DIABP",
        "vsorres": "",
        "vsdtc": "11/03/2013"
      },
      {
        "studyid": "TEST-STUDY",
        "usubjid": "15-015",
        "vstestcd": "DIABP",
        "vsorres": "92",
        "vsdtc": "03/04/2013"
      },
      {
        "studyid": "TEST-STUDY",
        "usubjid": "03-068",
        "vstestcd": "DIABP",
        "vsorres": "62",
        "vsdtc": "14/03/2013"
      },
      {
        "studyid": "TEST-STUDY",
        "usubjid": "03-069",
        "vstestcd": "DIABP",
        "vsorres": "",
        "vsdtc": ""
      },
      {
        "studyid": "TEST-STUDY",
        "usubjid": "03-067",
        "vstestcd": "DIABP",
        "vsorres": "68",
        "vsdtc": "05/03/2013"
      },
      {
        "studyid": "TEST-STUDY",
        "usubjid": "03-071",
        "vstestcd": "DIABP",
        "vsorres": "",
        "vsdtc": "06/03/2013"
      },
      {
        "studyid": "TEST-STUDY",
        "usubjid": "04-123",
        "vstestcd": "DIABP",
        "vsorres": "",
        "vsdtc": "12/03/2013"
      },
      {
        "studyid": "TEST-STUDY",
        "usubjid": "04-124",
        "vstestcd": "DIABP",
        "vsorres": "",
        "vsdtc": "14/03/2013"
      },
      {
        "studyid": "TEST-STUDY",
        "usubjid": "04-125",
        "vstestcd": "DIABP",
        "vsorres": "73",
        "vsdtc": "14/03/2013"
      },
      {
        "studyid": "TEST-STUDY",
        "usubjid": "04-126",
        "vstestcd": "DIABP",
        "vsorres": "76",
